"subj_id","trial_num","left_word","left_number","middle_word","middle_number","right_word","right_number","chose_gems","chose_onlystones","chose_other","response_position","correct_choice_position","computer_chose_gems","computer_chose_onlystones","computer_chose_other","is_catch_trial","is_show_trial","stoneposition","emeraldposition","rt","choice_rt","reveal_rt","comprehension_failures_part1","number_correct_part1","computer_response_position","number_correct_part1_computer","mentioned_rule","is_consistent","is_consistent_computer","confidence","confidence_rt","comprehension_failures_part2_1","comprehension_failures_part2_2","comprehension_failures_part2_3","comprehension_failures_part2_4","number_correct_part2","part1_response_position","computer_response_position_p1","chose_gems_p2","chose_onlystones_p2","chose_other_p2","response_position_p2","correct_choice_position_p2","rt_p2","choice_rt_p2"
"6720fbc84253185973cbe564",1,"Mouth",4,"Can",1,"Hoop",5,FALSE,TRUE,FALSE,"right","middle",FALSE,FALSE,TRUE,FALSE,TRUE,"right","[""left"",""middle""]",NA,4389.30000001192,816.599999964237,0,20,"left",13,TRUE,FALSE,TRUE,24,1590.70000004768,0,0,0,0,30,"right","left",FALSE,FALSE,TRUE,"left","middle",NA,2380.39999997616
"56e967b74c71f00005d78743",1,"Head",2,"Hanger",2,"Cherry",2,TRUE,FALSE,FALSE,"right","right",FALSE,TRUE,FALSE,TRUE,TRUE,"left","[""middle"",""right""]",NA,1816.79999999702,1452.29999999702,1,33,"left",17,FALSE,TRUE,FALSE,100,2199.20000000298,0,0,0,0,35,"right","left",TRUE,FALSE,FALSE,"right","right",NA,1511.09999999404
"5cf6ee10d5478e0001da72bd",1,"Octopus",1,"Stove",5,"Crayons",2,FALSE,TRUE,FALSE,"right","middle",FALSE,FALSE,TRUE,FALSE,TRUE,"right","[""left"",""middle""]",NA,2731,1373.20000001788,1,20,"left",13,FALSE,TRUE,FALSE,25,1635.30000001192,0,0,0,0,26,"right","left",FALSE,TRUE,FALSE,"right","middle",NA,2731.59999999404
"6120e3a34f6ad742437d6c95",1,"Fish",4,"Pirate",5,"Dolls",3,FALSE,FALSE,TRUE,"right","left",FALSE,TRUE,FALSE,FALSE,TRUE,"middle","[""left"",""right""]",NA,3198.5,906.100000023842,0,18,"middle",20,FALSE,FALSE,FALSE,36,1457.60000002384,0,0,0,0,42,"right","middle",TRUE,FALSE,FALSE,"left","left",NA,2035.5
"594016e06ee2c800016c09d1",1,"Puppets",3,"Leaf",3,"Rock",4,FALSE,FALSE,TRUE,"middle","right",FALSE,TRUE,FALSE,FALSE,TRUE,"left","[""middle"",""right""]",NA,5139.09999999963,1395.89999999991,1,31,"left",16,FALSE,TRUE,FALSE,35,3545,0,0,0,0,14,"middle","left",FALSE,FALSE,TRUE,"middle","right",NA,3090.89999999991
"5791dae225cb71000128ad5b",1,"Taco",2,"Rabbit",2,"Zipper",1,FALSE,FALSE,TRUE,"middle","right",FALSE,TRUE,FALSE,FALSE,TRUE,"left","[""middle"",""right""]",NA,3186.79999995232,1396.10000014305,0,18,"left",16,FALSE,TRUE,FALSE,74,1632.5,0,0,0,0,29,"middle","left",FALSE,FALSE,TRUE,"middle","right",NA,2344.90000009537
"67696d49d386c9789b03b1da",1,"Fence",1,"Cable",2,"Stamps",3,FALSE,FALSE,TRUE,"left","middle",FALSE,TRUE,FALSE,FALSE,TRUE,"right","[""left"",""middle""]",NA,3529.30000000447,1368.5,0,32,"right",18,FALSE,FALSE,TRUE,23,1572.79999999702,0,0,0,0,20,"left","right",FALSE,TRUE,FALSE,"right","middle",NA,2924
"67db4c889794c3be29370b1d",1,"Snake",1,"Hammer",5,"Drum",1,TRUE,FALSE,FALSE,"middle","middle",FALSE,FALSE,TRUE,FALSE,TRUE,"right","[""left"",""middle""]",NA,4681.10000002384,2571.79999995232,0,28,"left",17,FALSE,TRUE,FALSE,100,3019.69999998808,0,0,0,0,48,"middle","left",TRUE,FALSE,FALSE,"middle","middle",NA,3030.19999998808
"60cf0d251a90eb823bc9b740",1,"Heart",2,"Squirrel",5,"Soap",4,FALSE,TRUE,FALSE,"right","middle",FALSE,FALSE,TRUE,FALSE,TRUE,"right","[""left"",""middle""]",NA,4034.79999995232,1382.20000004768,0,16,"left",20,FALSE,TRUE,FALSE,100,1378.19999998808,0,0,0,0,48,"right","left",FALSE,TRUE,FALSE,"right","middle",NA,2430.39999997616
"63469662d9e84d379f52c166",1,"Flashlight",2,"Hoop",3,"Hamburger",2,FALSE,TRUE,FALSE,"middle","right",FALSE,FALSE,TRUE,FALSE,TRUE,"middle","[""left"",""right""]",NA,7852.10000000056,1729.90000000037,0,20,"left",20,FALSE,TRUE,FALSE,63,4007.09999999963,0,1,0,0,30,"middle","left",FALSE,TRUE,FALSE,"middle","right",NA,5067.19999999925
"5cf6e4aae289a80019b6e032",1,"Tape",4,"Sheep",4,"Curtain",2,TRUE,FALSE,FALSE,"left","left",FALSE,TRUE,FALSE,FALSE,TRUE,"right","[""left"",""middle""]",NA,5024.89999999991,1874.59999999963,0,30,"right",18,FALSE,TRUE,FALSE,95,2567.29999999981,0,0,0,0,28,"left","right",TRUE,FALSE,FALSE,"left","left",NA,6316.79999999981
"5bb609520cb04c00014efb8a",1,"Lamp",3,"Waffle",5,"Grass",5,FALSE,FALSE,TRUE,"right","left",TRUE,FALSE,FALSE,FALSE,TRUE,"middle","[""left"",""right""]",NA,4225.79999999981,1047.60000000009,0,8,"left",35,FALSE,FALSE,FALSE,65,3227.70000000019,0,0,0,0,30,"right","left",FALSE,TRUE,FALSE,"middle","left",NA,3829.89999999991
"61282ca83be28773ac7c421f",1,"Shampoo",3,"Mountain",4,"Bathtub",1,FALSE,TRUE,FALSE,"middle","left",FALSE,FALSE,TRUE,FALSE,TRUE,"middle","[""left"",""right""]",NA,16256.5,2370.5,0,30,"right",20,TRUE,TRUE,FALSE,60,5903.70000000019,0,0,0,0,20,"middle","right",FALSE,TRUE,FALSE,"middle","left",NA,4024.90000000037
"5ee637a18976fc391312fe01",1,"Fence",5,"Airplane",2,"Monkey",3,FALSE,TRUE,FALSE,"right","left",FALSE,FALSE,TRUE,FALSE,TRUE,"right","[""left"",""middle""]",NA,3464.39999999851,1634.80000000075,0,20,"middle",22,FALSE,TRUE,FALSE,9,2241.80000000075,0,0,0,0,43,"right","middle",FALSE,TRUE,FALSE,"right","left",NA,4443
"5b9ca13a06114100010699b8",1,"Cow",4,"Toy",5,"Umbrella",5,FALSE,TRUE,FALSE,"middle","right",TRUE,FALSE,FALSE,FALSE,TRUE,"middle","[""left"",""right""]",NA,3693.69999998808,1269.10000002384,0,20,"right",28,FALSE,TRUE,FALSE,71,1547.80000001192,0,0,0,0,29,"middle","right",FALSE,TRUE,FALSE,"middle","right",NA,3730.59999996424
"66954d8d88d42a3482f13df6",1,"Carrots",5,"Diaper",2,"Heart",4,FALSE,TRUE,FALSE,"left","middle",TRUE,FALSE,FALSE,FALSE,TRUE,"left","[""middle"",""right""]",NA,6177,935,0,17,"middle",16,FALSE,TRUE,FALSE,100,1186,0,0,0,0,47,"left","middle",FALSE,TRUE,FALSE,"left","middle",NA,2126
"6304db4577830d43f42d4d26",1,"Tongue",4,"Fork",1,"Rainbow",4,FALSE,FALSE,TRUE,"right","left",FALSE,TRUE,FALSE,FALSE,TRUE,"middle","[""left"",""right""]",NA,4184.40000000037,979.599999999628,0,18,"middle",23,FALSE,TRUE,FALSE,76,1354.59999999963,0,0,0,0,38,"right","middle",FALSE,FALSE,TRUE,"right","left",NA,3054.40000000037
"67e7cdfb2d3c81d83ccef700",1,"Cereal",3,"Dinosaur",5,"Bone",2,FALSE,TRUE,FALSE,"middle","right",FALSE,FALSE,TRUE,FALSE,TRUE,"middle","[""left"",""right""]",NA,6163,5212,0,15,"left",35,FALSE,FALSE,TRUE,89,1714,0,0,0,0,30,"middle","left",FALSE,FALSE,TRUE,"left","right",NA,30290
"67701cb8e95b8934348de694",1,"Spoon",5,"Napkin",1,"Pot",1,FALSE,TRUE,FALSE,"middle","left",FALSE,FALSE,TRUE,FALSE,TRUE,"middle","[""left"",""right""]",NA,1435.69999998808,1538.19999998808,0,23,"right",21,FALSE,FALSE,FALSE,75,1637.30000001192,0,0,0,0,32,"middle","right",TRUE,FALSE,FALSE,"left","left",NA,2048
"65107641138d7e50e2a290d0",1,"Shirt",1,"Slinky",5,"Camera",1,TRUE,FALSE,FALSE,"middle","middle",FALSE,FALSE,TRUE,FALSE,TRUE,"right","[""left"",""middle""]",NA,5664.80000007153,1210.89999997616,1,35,"left",9,FALSE,TRUE,FALSE,98,1839.69999992847,0,0,0,0,30,"middle","left",TRUE,FALSE,FALSE,"middle","middle",NA,2136.60000002384
"5be30116dd850e0001d2ba99",1,"Tummy",4,"Chicken",1,"Cup",5,TRUE,FALSE,FALSE,"right","right",FALSE,TRUE,FALSE,FALSE,TRUE,"middle","[""left"",""right""]",NA,2123.69999992847,888.600000023842,0,30,"middle",16,FALSE,TRUE,FALSE,92,1695,0,0,0,0,45,"right","middle",TRUE,FALSE,FALSE,"right","right",NA,2195.69999992847
"5e38777a87243b095c67543b",1,"Brush",1,"Chopsticks",3,"Mailbox",1,FALSE,TRUE,FALSE,"middle","left",FALSE,FALSE,TRUE,FALSE,TRUE,"middle","[""left"",""right""]",NA,3583.29999998212,3017.90000000596,0,8,"right",10,TRUE,TRUE,FALSE,4,1583.5,0,0,0,0,6,"middle","right",FALSE,TRUE,FALSE,"middle","left",NA,4302.39999997616
"60325f7577ccb72319bf3c63",1,"Dolls",1,"Meat",1,"Drum",2,TRUE,FALSE,FALSE,"right","right",FALSE,FALSE,TRUE,FALSE,TRUE,"left","[""middle"",""right""]",NA,4016.89999997616,1398.30000001192,0,20,"middle",13,FALSE,TRUE,FALSE,37,4397.80000001192,0,0,0,0,35,"right","middle",TRUE,FALSE,FALSE,"right","right",NA,2516.60000002384
"59d4c100078dbe0001951236",1,"Hanger",5,"Zipper",2,"Rainbow",2,FALSE,TRUE,FALSE,"left","right",FALSE,FALSE,TRUE,FALSE,TRUE,"left","[""middle"",""right""]",NA,6449.59999999963,1347.79999999981,0,10,"middle",8,FALSE,FALSE,FALSE,10,1424.40000000037,0,0,0,0,27,"left","middle",TRUE,FALSE,FALSE,"right","right",NA,3897.29999999981
"677406a14c6e104dba32e029",1,"Bacon",4,"Iron",2,"Fish",1,TRUE,FALSE,FALSE,"left","left",FALSE,FALSE,TRUE,FALSE,TRUE,"middle","[""left"",""right""]",NA,7122,1397,0,36,"right",19,FALSE,TRUE,FALSE,96,1298,0,0,0,0,15,"left","right",TRUE,FALSE,FALSE,"left","left",NA,1590
"669faeb6d07d662c8f3de95b",1,"Dog",4,"Zipper",5,"Nose",1,FALSE,TRUE,FALSE,"middle","left",FALSE,FALSE,TRUE,FALSE,TRUE,"middle","[""left"",""right""]",NA,3006.19999998808,1392.5,0,20,"right",25,FALSE,FALSE,TRUE,46,3012.20000001788,0,0,0,0,10,"middle","right",FALSE,FALSE,TRUE,"right","left",NA,1944.80000001192
"66465c850d9a3e177f2649fa",1,"Bird",1,"Head",4,"Cable",2,FALSE,TRUE,FALSE,"left","right",TRUE,FALSE,FALSE,FALSE,TRUE,"left","[""middle"",""right""]",NA,4630.5,1070.90000009537,0,12,"right",34,FALSE,FALSE,FALSE,22,2159.39999997616,0,0,0,0,45,"left","right",FALSE,FALSE,TRUE,"middle","right",NA,4959.89999997616
"55daf7b369dbc30005b68ac9",1,"Lizard",5,"Bee",5,"Cup",1,FALSE,TRUE,FALSE,"middle","right",FALSE,FALSE,TRUE,FALSE,TRUE,"middle","[""left"",""right""]",NA,5103.30000001192,1036.5,0,21,"left",15,FALSE,TRUE,FALSE,27,2863.10000002384,0,0,0,0,40,"middle","left",FALSE,TRUE,FALSE,"middle","right",NA,5898.80000001192
"62e3f7b224ec70641fd86b7b",1,"Rain",4,"Waffle",5,"Lizard",2,TRUE,FALSE,FALSE,"middle","middle",FALSE,FALSE,TRUE,FALSE,TRUE,"left","[""middle"",""right""]",NA,3682.79999999999,1366.39999999997,0,25,"right",15,FALSE,TRUE,FALSE,54,3350,0,0,0,0,44,"middle","right",TRUE,FALSE,FALSE,"middle","middle",NA,5675.89999999991
"5c4b987538878c0001c7883b",1,"Chalk",5,"Zebra",1,"Sheep",3,FALSE,FALSE,TRUE,"left","right",TRUE,FALSE,FALSE,FALSE,TRUE,"middle","[""left"",""right""]",NA,4308.29999995232,1319.79999995232,0,35,"right",40,FALSE,TRUE,FALSE,15,1726.5,0,0,0,0,42,"left","right",FALSE,FALSE,TRUE,"left","right",NA,7725.5
"5ad8dbe2e34a050001b83eac",1,"Fingernail",5,"Newspaper",2,"Lion",3,FALSE,FALSE,TRUE,"left","middle",FALSE,TRUE,FALSE,FALSE,TRUE,"right","[""left"",""middle""]",NA,5743.60000002384,1223.10000002384,1,14,"right",15,FALSE,TRUE,FALSE,100,3282.70000004768,0,0,0,0,10,"left","right",FALSE,FALSE,TRUE,"left","middle",NA,2536.29999995232
"661403131cecbe255b64ca6f",1,"Sun",3,"Lizard",2,"Bananas",3,TRUE,FALSE,FALSE,"right","right",FALSE,TRUE,FALSE,TRUE,TRUE,"middle","[""left"",""right""]",NA,1397.40000000037,1294.5,0,38,"middle",12,TRUE,TRUE,FALSE,31,1107.5,0,0,0,0,45,"right","middle",TRUE,FALSE,FALSE,"right","right",NA,1958.10000000056
"5ee0df4ff87654455ad1cb9a",1,"Sandwich",1,"Knee",5,"Soap",3,TRUE,FALSE,FALSE,"right","right",FALSE,FALSE,TRUE,FALSE,TRUE,"left","[""middle"",""right""]",NA,6625,1422,0,35,"middle",28,FALSE,FALSE,TRUE,36,2239,0,0,0,0,39,"right","middle",FALSE,FALSE,TRUE,"middle","right",NA,3037
"66b41d5d3c2a978a7aac2264",1,"Notebook",5,"Pot",4,"String",1,TRUE,FALSE,FALSE,"middle","middle",FALSE,FALSE,TRUE,FALSE,TRUE,"right","[""left"",""middle""]",NA,5715.5,1875.69999999925,0,35,"left",25,FALSE,FALSE,TRUE,82,3742.59999999963,0,0,0,0,20,"middle","left",FALSE,FALSE,TRUE,"left","middle",NA,3415.59999999963
"5d4b085ef76ba3001c7510de",1,"Chips",2,"Fingers",5,"Hot Dog",5,TRUE,FALSE,FALSE,"middle","middle",FALSE,TRUE,FALSE,FALSE,TRUE,"left","[""middle"",""right""]",NA,5018.19999999995,1626.20000000007,0,17,"left",17,FALSE,TRUE,FALSE,81,1692.5,0,0,0,0,45,"middle","left",TRUE,FALSE,FALSE,"middle","middle",NA,1375.5
"5d8e154af2858200171fdb95",1,"Ostrich",2,"Helicopter",3,"Plate",5,FALSE,FALSE,TRUE,"right","left",TRUE,FALSE,FALSE,FALSE,TRUE,"middle","[""left"",""right""]",NA,2218.19999998808,1035.40000003576,0,28,"left",28,FALSE,TRUE,FALSE,15,1133.90000003576,0,0,0,0,19,"right","left",FALSE,FALSE,TRUE,"right","left",NA,2429.09999996424
"63f82a4ff43ec144ca3622a8",1,"Cable",3,"Train",3,"Oranges",3,TRUE,FALSE,FALSE,"right","right",FALSE,TRUE,FALSE,TRUE,TRUE,"middle","[""left"",""right""]",NA,3213,2717.30000001192,1,20,"middle",10,FALSE,TRUE,FALSE,46,2028.80000001192,0,0,0,0,31,"right","middle",TRUE,FALSE,FALSE,"right","right",NA,2508.5
"66fceda149718a86f36761b4",1,"Butterfly",2,"Cereal",1,"Queen",4,FALSE,FALSE,TRUE,"left","right",TRUE,FALSE,FALSE,FALSE,TRUE,"middle","[""left"",""right""]",NA,2435,1227.59999999963,0,11,"right",11,FALSE,TRUE,FALSE,75,1369,0,0,0,0,21,"left","right",FALSE,FALSE,TRUE,"left","right",NA,3387.59999999963
"59f0eda5e75b450001a699a7",1,"Napkin",5,"Window",5,"Curtain",3,FALSE,TRUE,FALSE,"middle","right",FALSE,FALSE,TRUE,FALSE,TRUE,"middle","[""left"",""right""]",NA,5194.19999980927,2187.90000009537,0,14,"left",14,FALSE,FALSE,FALSE,36,3370.40000009537,0,0,0,0,30,"middle","left",TRUE,FALSE,FALSE,"right","right",NA,2224.30000019073
"5f53b958c8cfea6e2104c5b6",1,"Puzzles",3,"Candle",2,"Pretzel",5,TRUE,FALSE,FALSE,"middle","middle",FALSE,TRUE,FALSE,FALSE,TRUE,"left","[""middle"",""right""]",NA,5158.5,2596.09999990463,0,27,"left",40,FALSE,FALSE,TRUE,86,1899.09999990463,0,0,0,0,28,"middle","left",FALSE,TRUE,FALSE,"left","middle",NA,4979.7000002861
"65dca6bb88611ac902cc60fb",1,"Cup",3,"Boat",3,"Bear",1,TRUE,FALSE,FALSE,"middle","middle",FALSE,TRUE,FALSE,FALSE,TRUE,"left","[""middle"",""right""]",NA,3343.29999995232,1264.80000007153,1,27,"left",9,TRUE,TRUE,FALSE,84,1986.5,0,0,0,0,31,"middle","left",TRUE,FALSE,FALSE,"middle","middle",NA,2668.29999995232
"60fc2ec58ad0da367daee3c1",1,"Tape",1,"Stairs",3,"Hammer",3,TRUE,FALSE,FALSE,"right","right",FALSE,TRUE,FALSE,FALSE,TRUE,"middle","[""left"",""right""]",NA,2868.5,1232.29999995232,0,12,"middle",38,FALSE,FALSE,TRUE,12,1587.89999997616,0,0,0,0,33,"right","middle",FALSE,TRUE,FALSE,"middle","right",NA,3813.89999997616
"60a3ac51b06fa9eb29a105bc",1,"Spider",2,"Sandwich",4,"Whistle",5,FALSE,FALSE,TRUE,"middle","right",FALSE,TRUE,FALSE,FALSE,TRUE,"left","[""middle"",""right""]",NA,4626,838,1,8,"left",19,FALSE,FALSE,FALSE,100,1235.99999999988,0,0,0,0,38,"middle","left",TRUE,FALSE,FALSE,"right","right",NA,1717
"5e3068330082f106875fb3f2",1,"Ghost",2,"Spiderweb",4,"Chicken",2,FALSE,TRUE,FALSE,"middle","left",FALSE,FALSE,TRUE,FALSE,TRUE,"middle","[""left"",""right""]",NA,2532.29999995232,852.899999976158,0,20,"right",29,FALSE,FALSE,TRUE,59,1131.80000001192,0,0,0,0,16,"middle","right",FALSE,FALSE,TRUE,"right","left",NA,2742.69999998808
"660de2426df2c14f27678f6b",1,"Mirror",2,"Suitcase",1,"Cow",1,FALSE,FALSE,TRUE,"middle","left",TRUE,FALSE,FALSE,FALSE,TRUE,"right","[""left"",""middle""]",NA,3867.19999992847,1258,1,20,"left",19,FALSE,FALSE,FALSE,43,3184.70000004768,0,0,0,0,22,"middle","left",FALSE,TRUE,FALSE,"right","left",NA,2715.5
"5eea9a9ea8d6d71ba912a73e",1,"Moon",2,"Books",1,"Goal",3,TRUE,FALSE,FALSE,"right","right",FALSE,TRUE,FALSE,FALSE,TRUE,"left","[""middle"",""right""]",NA,3561.90000003576,1549.59999996424,0,37,"left",11,FALSE,FALSE,FALSE,66,1792.39999997616,0,0,0,0,44,"right","left",FALSE,FALSE,TRUE,"middle","right",NA,3534.89999997616
"5eced9328405902eef967571",1,"Carrots",4,"Pool",5,"Suitcase",3,TRUE,FALSE,FALSE,"left","left",FALSE,FALSE,TRUE,FALSE,TRUE,"right","[""left"",""middle""]",NA,6480.40000000037,1467.89999999944,0,30,"middle",15,FALSE,TRUE,FALSE,69,1707.60000000056,0,0,0,0,35,"left","middle",TRUE,FALSE,FALSE,"left","left",NA,2185
"5eec48a2a0a86044492efa67",1,"Rope",5,"Glove",4,"Cupcake",3,FALSE,FALSE,TRUE,"left","middle",FALSE,TRUE,FALSE,FALSE,TRUE,"right","[""left"",""middle""]",NA,7438.40000003576,1494.30000001192,0,21,"right",20,FALSE,TRUE,FALSE,72,1633.5,0,0,0,0,45,"left","right",FALSE,FALSE,TRUE,"left","middle",NA,3848.10000002384
"5c726173c66879000152e516",1,"Spiderweb",1,"Paints",5,"Blocks",1,FALSE,TRUE,FALSE,"middle","left",TRUE,FALSE,FALSE,FALSE,TRUE,"middle","[""left"",""right""]",NA,6441.39999999991,1468.10000000009,0,20,"left",30,FALSE,TRUE,FALSE,83,2281.80000000005,0,0,0,0,20,"middle","left",FALSE,TRUE,FALSE,"middle","left",NA,3151.69999999995
"5c5b55ce32810e0001c3456b",1,"Turtle",5,"Baby",1,"Blanket",2,FALSE,FALSE,TRUE,"middle","left",TRUE,FALSE,FALSE,FALSE,TRUE,"right","[""left"",""middle""]",NA,6107,1963,0,34,"left",15,FALSE,TRUE,FALSE,26,2553,0,0,0,0,19,"middle","left",FALSE,FALSE,TRUE,"middle","left",NA,4984
"5f4412624052727181839e3a",1,"Dresser",3,"Camera",2,"Peas",5,TRUE,FALSE,FALSE,"right","right",FALSE,TRUE,FALSE,FALSE,TRUE,"middle","[""left"",""right""]",NA,2974,925,0,22,"middle",12,FALSE,TRUE,FALSE,100,1159,0,1,0,0,40,"right","middle",TRUE,FALSE,FALSE,"right","right",NA,2052
"662939c49821886e0246c494",1,"Hamburger",3,"Lion",5,"Tiger",4,FALSE,TRUE,FALSE,"middle","left",FALSE,FALSE,TRUE,FALSE,TRUE,"middle","[""left"",""right""]",NA,2354.19999998808,1122.30000001192,0,35,"right",30,FALSE,FALSE,FALSE,24,2393.80000001192,0,0,0,0,12,"middle","right",TRUE,FALSE,FALSE,"left","left",NA,3594.69999998808
"5d542c3a5af5900019bc80c4",1,"Chips",4,"Elbow",2,"Cookies",3,FALSE,FALSE,TRUE,"middle","right",TRUE,FALSE,FALSE,FALSE,TRUE,"left","[""middle"",""right""]",NA,2045.39999997616,1463.29999995232,0,15,"right",17,FALSE,FALSE,FALSE,92,1438.59999990463,0,0,0,0,48,"middle","right",FALSE,TRUE,FALSE,"left","right",NA,1701.19999992847
"5ced0da70afd6e0001a9f211",1,"Box",1,"Money",2,"Bucket",2,FALSE,FALSE,TRUE,"left","middle",FALSE,TRUE,FALSE,FALSE,TRUE,"right","[""left"",""middle""]",NA,2326.90000000596,1196.59999999404,0,5,"right",45,FALSE,FALSE,TRUE,37,2043.89999997616,0,0,0,0,41,"left","right",FALSE,TRUE,FALSE,"right","middle",NA,2620.70000001788
"6475208cd6045ed7c2e281ab",1,"Door",3,"Newspaper",3,"Bathtub",5,FALSE,FALSE,TRUE,"middle","right",TRUE,FALSE,FALSE,FALSE,TRUE,"left","[""middle"",""right""]",NA,8452.30000001192,3465.19999998808,0,27,"right",23,FALSE,FALSE,TRUE,18,5085.80000001192,0,0,0,0,40,"middle","right",TRUE,FALSE,FALSE,"right","right",NA,4173.70000004768
"570ff6c4736f6a00095576c7",1,"Belt",1,"Jump rope",5,"Mountain",4,FALSE,TRUE,FALSE,"right","left",FALSE,FALSE,TRUE,FALSE,TRUE,"right","[""left"",""middle""]",NA,2612.79999995232,1064.70000004768,0,20,"middle",25,FALSE,FALSE,TRUE,79,1237.09999990463,0,0,0,0,10,"right","middle",FALSE,FALSE,TRUE,"middle","left",NA,2339.20000004768
"5b4ec32e995d4e00010944ce",1,"Spiderweb",2,"Dress",4,"Toilet",5,TRUE,FALSE,FALSE,"middle","middle",FALSE,FALSE,TRUE,FALSE,TRUE,"left","[""middle"",""right""]",NA,4083.39999997616,1180.29999995232,0,17,"right",15,FALSE,TRUE,FALSE,73,2080.79999995232,0,0,0,0,36,"middle","right",TRUE,FALSE,FALSE,"middle","middle",NA,4324.19999998808
"57bafa6cc308ca00014527c2",1,"Ant",1,"Suitcase",1,"String",1,FALSE,TRUE,FALSE,"middle","left",TRUE,FALSE,FALSE,FALSE,TRUE,"middle","[""left"",""right""]",NA,4376.40000000596,1567.79999999702,0,10,"left",15,FALSE,TRUE,FALSE,61,3504.79999999702,0,0,0,0,45,"middle","left",FALSE,TRUE,FALSE,"middle","left",NA,4762.40000000596
"66956649d7179281d46fa6f2",1,"Toy",1,"Lamp",5,"Swing",2,FALSE,TRUE,FALSE,"right","middle",TRUE,FALSE,FALSE,FALSE,TRUE,"right","[""left"",""middle""]",NA,5498.79999999702,1399.30000001192,0,33,"middle",14,FALSE,FALSE,TRUE,18,3000.30000001192,0,0,0,0,18,"right","middle",TRUE,FALSE,FALSE,"middle","middle",NA,2617.80000001192
"63e5a6690eeedc20da056717",1,"Skateboard",2,"Sheep",1,"Shovel",5,FALSE,FALSE,TRUE,"right","left",TRUE,FALSE,FALSE,FALSE,TRUE,"middle","[""left"",""right""]",NA,6249.5,1734.09999999404,0,18,"left",19,FALSE,FALSE,TRUE,100,1516.09999999404,0,0,0,0,32,"right","left",TRUE,FALSE,FALSE,"left","left",NA,3374.40000000596
"5d352f8bb02857001963539a",1,"Hoop",2,"Feather",1,"Milk",2,TRUE,FALSE,FALSE,"left","left",FALSE,FALSE,TRUE,FALSE,TRUE,"right","[""left"",""middle""]",NA,3393.59999990463,1096,0,16,"middle",10,FALSE,TRUE,FALSE,100,1664.40000009537,0,0,0,0,48,"left","middle",TRUE,FALSE,FALSE,"left","left",NA,3482
"5cf66ed8912f0b0017c50b52",1,"Pretzel",4,"Hanger",3,"Boat",3,TRUE,FALSE,FALSE,"left","left",FALSE,TRUE,FALSE,FALSE,TRUE,"middle","[""left"",""right""]",NA,3078.80000001192,1279.10000002384,0,12,"middle",27,FALSE,TRUE,FALSE,98,1375.19999998808,0,0,0,0,46,"left","middle",TRUE,FALSE,FALSE,"left","left",NA,1728.60000002384
"5cfb459229a6c2001764e10d",1,"Glove",3,"Refrigerator",4,"Flashlight",4,FALSE,TRUE,FALSE,"middle","left",TRUE,FALSE,FALSE,FALSE,TRUE,"middle","[""left"",""right""]",NA,3844,1043,0,24,"left",26,FALSE,FALSE,TRUE,18,2163,0,0,0,0,40,"middle","left",TRUE,FALSE,FALSE,"left","left",NA,4371
"5b79dfb9db11320001c3d3f4",1,"Tie",3,"Squirrel",1,"Play dough",1,TRUE,FALSE,FALSE,"right","right",FALSE,FALSE,TRUE,FALSE,TRUE,"middle","[""left"",""right""]",NA,6198.5,1012.30000001192,1,28,"left",15,FALSE,FALSE,TRUE,0,4349.29999998212,0,1,0,0,25,"right","left",FALSE,FALSE,TRUE,"left","right",NA,6952.5
"654e42ed750e4e81219b2c0e",1,"Meat",2,"Doughnut",4,"Bed",4,TRUE,FALSE,FALSE,"left","left",FALSE,FALSE,TRUE,FALSE,TRUE,"right","[""left"",""middle""]",NA,2740,1498.09999990463,0,35,"middle",26,FALSE,FALSE,TRUE,98,1570.40000009537,0,0,0,0,34,"left","middle",FALSE,FALSE,TRUE,"middle","left",NA,3710.59999990463
"63d7b30ddc8ceb61c74fe85b",1,"Battery",5,"Boat",2,"Bandaid",3,FALSE,TRUE,FALSE,"right","left",FALSE,FALSE,TRUE,FALSE,TRUE,"right","[""left"",""middle""]",NA,3894.5,1783.80000000075,0,39,"middle",15,FALSE,TRUE,FALSE,97,2298.90000000224,0,0,0,0,32,"right","middle",FALSE,TRUE,FALSE,"right","left",NA,2312.59999999776
"65cb708afe5755feaeec417f",1,"Bottle",2,"Elephant",4,"Pool",3,FALSE,FALSE,TRUE,"middle","right",FALSE,TRUE,FALSE,FALSE,TRUE,"left","[""middle"",""right""]",NA,3778.19999992847,923.100000023842,1,15,"left",10,FALSE,TRUE,FALSE,100,1422.89999997616,0,0,0,0,44,"middle","left",FALSE,FALSE,TRUE,"middle","right",NA,1636
"6155e95c0808b015514b34e0",1,"Stairs",3,"Boat",3,"Sheep",5,FALSE,FALSE,TRUE,"middle","right",TRUE,FALSE,FALSE,FALSE,TRUE,"left","[""middle"",""right""]",NA,3345.09999996424,1287.60000002384,1,30,"right",27,FALSE,FALSE,TRUE,47,958.900000035763,0,0,0,0,16,"middle","right",TRUE,FALSE,FALSE,"right","right",NA,1978
"5bd2d397f92a480001c64dcb",1,"Teapot",3,"Taco",2,"Baby",2,TRUE,FALSE,FALSE,"left","left",FALSE,TRUE,FALSE,FALSE,TRUE,"right","[""left"",""middle""]",NA,4759,837,1,17,"right",10,FALSE,FALSE,FALSE,57,579,0,0,0,0,15,"left","right",FALSE,FALSE,TRUE,"middle","left",NA,1576
"677a8e5affbe5673b3a79e6b",1,"Boots",5,"Horse",2,"Pizza",4,FALSE,FALSE,TRUE,"middle","right",FALSE,TRUE,FALSE,FALSE,TRUE,"left","[""middle"",""right""]",NA,5855,2259,0,30,"left",19,TRUE,FALSE,TRUE,57,1646,0,0,0,0,15,"middle","left",FALSE,TRUE,FALSE,"left","right",NA,4285
"66b8e8f12fa9160e4ca9f25b",1,"Knee",2,"Snake",1,"Mouse",5,FALSE,TRUE,FALSE,"right","left",TRUE,FALSE,FALSE,FALSE,TRUE,"right","[""left"",""middle""]",NA,2444,1384.60000000149,0,25,"left",25,TRUE,TRUE,FALSE,79,1570.39999999851,0,0,0,0,45,"right","left",FALSE,TRUE,FALSE,"right","left",NA,1780.5
"616ef680ab8ca318a227f5ec",1,"Leg",5,"Horse",3,"TV",1,FALSE,FALSE,TRUE,"left","right",FALSE,TRUE,FALSE,FALSE,TRUE,"middle","[""left"",""right""]",NA,2926.5,2160.59999990463,0,14,"middle",36,FALSE,TRUE,FALSE,100,2884.89999997616,0,0,0,0,22,"left","middle",FALSE,FALSE,TRUE,"left","right",NA,2775.79999995232
"676f0d51832c4a60f2d8cb96",1,"Knife",1,"Towels",3,"Elbow",5,TRUE,FALSE,FALSE,"right","right",FALSE,FALSE,TRUE,FALSE,TRUE,"middle","[""left"",""right""]",NA,2401,1047.19999999925,1,30,"left",15,FALSE,TRUE,FALSE,53,1515.30000000075,0,0,0,0,38,"right","left",TRUE,FALSE,FALSE,"right","right",NA,2625.5
"67422eccacb7146efb2e7af0",1,"Straw",2,"Bead",4,"Net",4,FALSE,TRUE,FALSE,"middle","right",TRUE,FALSE,FALSE,FALSE,TRUE,"middle","[""left"",""right""]",NA,11691.2000000477,1636.70000004768,1,26,"right",24,FALSE,TRUE,FALSE,100,2575.29999995232,0,0,0,0,46,"middle","right",FALSE,TRUE,FALSE,"middle","right",NA,3495.19999992847
"6658c56f3d9230d99c3e6752",1,"Money",4,"Bat",5,"Balls",3,FALSE,FALSE,TRUE,"right","left",TRUE,FALSE,FALSE,FALSE,TRUE,"middle","[""left"",""right""]",NA,2565.39999999851,4464.89999999851,0,17,"left",18,FALSE,FALSE,TRUE,26,3519.30000000075,0,0,0,0,30,"right","left",TRUE,FALSE,FALSE,"left","left",NA,2490.89999999851
"654a86d08714f739c9fcea21",1,"Bee",4,"Money",5,"Octopus",2,FALSE,TRUE,FALSE,"left","middle",TRUE,FALSE,FALSE,FALSE,TRUE,"left","[""middle"",""right""]",NA,5628.89999999851,1624.80000000075,0,33,"middle",10,TRUE,FALSE,TRUE,0,1742,0,0,0,0,15,"left","middle",TRUE,FALSE,FALSE,"middle","middle",NA,3010.30000000075
"5ec3eabec8f93307a60c5d1b",1,"Pencil",5,"Hammer",3,"Helicopter",4,FALSE,FALSE,TRUE,"left","right",FALSE,TRUE,FALSE,FALSE,TRUE,"middle","[""left"",""right""]",NA,4690,1312,0,20,"middle",33,FALSE,FALSE,FALSE,69,1514,0,0,0,0,21,"left","middle",TRUE,FALSE,FALSE,"right","right",NA,5109
"6786d7955dfbf40eae7ed3d9",1,"Bubbles",1,"Octopus",5,"Vacuum",3,FALSE,TRUE,FALSE,"middle","left",TRUE,FALSE,FALSE,FALSE,TRUE,"middle","[""left"",""right""]",NA,3485.69999992847,3763.70000004768,1,39,"left",30,FALSE,TRUE,FALSE,91,1485.29999995232,0,0,0,0,46,"middle","left",FALSE,TRUE,FALSE,"middle","left",NA,1651.5
"659ea43fea7c0cc45bbe771f",1,"Scissors",4,"Ant",5,"Window",2,FALSE,TRUE,FALSE,"middle","right",TRUE,FALSE,FALSE,FALSE,TRUE,"middle","[""left"",""right""]",NA,9008,1387.5,0,33,"right",19,FALSE,TRUE,FALSE,37,2074.20000004768,0,0,0,0,38,"middle","right",FALSE,TRUE,FALSE,"middle","right",NA,5549.79999995232
"682b8071ffc2da7edd49f10c",1,"Chalk",2,"Strawberries",2,"Puppets",4,TRUE,FALSE,FALSE,"middle","middle",FALSE,FALSE,TRUE,TRUE,TRUE,"right","[""left"",""middle""]",NA,1549.79999999999,3697.90000000002,0,25,"left",28,TRUE,TRUE,FALSE,100,1740.5,0,0,0,0,26,"middle","left",TRUE,FALSE,FALSE,"middle","middle",NA,1554.60000000009
"5c2ab2de9136140001b90737",1,"Spiderweb",3,"Spider",1,"Arm",4,FALSE,TRUE,FALSE,"middle","left",FALSE,FALSE,TRUE,FALSE,TRUE,"middle","[""left"",""right""]",NA,5210.30000000075,2411.80000000075,0,21,"right",13,FALSE,TRUE,FALSE,100,1558.19999999925,0,0,0,0,41,"middle","right",FALSE,TRUE,FALSE,"middle","left",NA,2225.80000000075
"5e7fa0e918b10804bb87eb63",1,"Play dough",2,"Bridge",3,"Barn",3,FALSE,FALSE,TRUE,"middle","right",TRUE,FALSE,FALSE,FALSE,TRUE,"left","[""middle"",""right""]",NA,4475.29999995232,1830.60000002384,0,38,"right",13,FALSE,TRUE,FALSE,99,1650.70000004768,0,0,0,0,39,"middle","right",FALSE,FALSE,TRUE,"middle","right",NA,1629.30000001192
"59014ee029f42300013cc5b7",1,"String",1,"Ladder",2,"Money",2,FALSE,TRUE,FALSE,"right","middle",TRUE,FALSE,FALSE,FALSE,TRUE,"right","[""left"",""middle""]",NA,4985.19999980927,2024.7999997139,0,22,"middle",32,FALSE,TRUE,FALSE,96,2241.2000002861,0,0,0,0,41,"right","middle",FALSE,TRUE,FALSE,"right","middle",NA,3504.10000038147
"633485c40e46cf7e9a2f2ca1",1,"Paints",5,"Yogurt",3,"Barn",5,TRUE,FALSE,FALSE,"middle","middle",FALSE,FALSE,TRUE,FALSE,TRUE,"left","[""middle"",""right""]",NA,7128.5,1092.70000004768,0,23,"right",15,FALSE,TRUE,FALSE,100,2332.70000004768,0,1,0,0,31,"middle","right",TRUE,FALSE,FALSE,"middle","middle",NA,3119.60000014305
"5827634ea80bf4000199994b",1,"Ghost",1,"Eggs",5,"Pancakes",1,TRUE,FALSE,FALSE,"middle","middle",FALSE,TRUE,FALSE,FALSE,TRUE,"left","[""middle"",""right""]",NA,3787,1412.29999995232,0,40,"left",10,FALSE,TRUE,FALSE,84,2193,0,0,0,0,20,"middle","left",TRUE,FALSE,FALSE,"middle","middle",NA,2203.79999995232
"642ef01a04c9f327767cde23",1,"Bridge",3,"Stove",3,"Sweater",2,FALSE,FALSE,TRUE,"left","middle",FALSE,TRUE,FALSE,FALSE,TRUE,"right","[""left"",""middle""]",NA,6943,2038.40000003576,0,11,"right",8,FALSE,TRUE,FALSE,78,2326.59999996424,0,0,0,0,37,"left","right",FALSE,FALSE,TRUE,"left","middle",NA,3155.69999998808
"5f3d42de03555c0832cbef73",1,"Snake",3,"Washcloth",3,"Crayons",4,FALSE,TRUE,FALSE,"right","left",TRUE,FALSE,FALSE,FALSE,TRUE,"right","[""left"",""middle""]",NA,4631.79999999981,996.699999999721,0,16,"left",34,FALSE,TRUE,FALSE,100,1752.79999999981,0,0,0,0,46,"right","left",FALSE,TRUE,FALSE,"right","left",NA,2513.80000000028
"63ed50df25d0ea08696b393f",1,"Zipper",1,"Bed",3,"Suitcase",4,TRUE,FALSE,FALSE,"right","right",FALSE,TRUE,FALSE,FALSE,TRUE,"left","[""middle"",""right""]",NA,3453.20000004768,1340.5,0,38,"left",9,FALSE,TRUE,FALSE,75,1539.09999996424,0,0,0,0,36,"right","left",TRUE,FALSE,FALSE,"right","right",NA,2165.29999995232
"67d0647157996203f3da1743",1,"Lizard",3,"Mirror",4,"Blanket",5,FALSE,FALSE,TRUE,"right","middle",FALSE,TRUE,FALSE,FALSE,TRUE,"left","[""middle"",""right""]",NA,7641.5,1517.39999997616,1,17,"left",17,FALSE,TRUE,FALSE,100,2042.19999998808,0,0,0,0,43,"right","left",FALSE,FALSE,TRUE,"right","middle",NA,3077.19999998808
"59a734ce0c87a000017481ed",1,"Sandals",3,"Soup",2,"Rain",5,FALSE,TRUE,FALSE,"right","left",FALSE,FALSE,TRUE,FALSE,TRUE,"right","[""left"",""middle""]",NA,2186.29999995232,1596.70000004768,0,23,"middle",13,FALSE,TRUE,FALSE,32,1292.19999980927,0,0,0,0,21,"right","middle",FALSE,TRUE,FALSE,"right","left",NA,3465.80000019073
"67665f7b0329bd3e30515ad2",1,"Cheese",5,"Teddy Bear",3,"Paper",5,FALSE,TRUE,FALSE,"right","middle",FALSE,FALSE,TRUE,FALSE,TRUE,"right","[""left"",""middle""]",NA,6474,1541.80000001192,0,28,"left",29,TRUE,FALSE,FALSE,32,1999.39999997616,0,0,0,0,39,"right","left",TRUE,FALSE,FALSE,"middle","middle",NA,3088.39999997616
"66bb63dab2b110041a61af00",1,"Tiger",2,"Bracelet",3,"Square",2,FALSE,FALSE,TRUE,"left","middle",TRUE,FALSE,FALSE,FALSE,TRUE,"right","[""left"",""middle""]",NA,3973.40000000002,913.100000000093,0,26,"middle",29,FALSE,FALSE,TRUE,27,1773.5,0,0,0,0,20,"left","middle",TRUE,FALSE,FALSE,"middle","middle",NA,1879.59999999986
"6290fea2c6e6821bf8d3c606",1,"Bone",2,"Candy",1,"Can",5,TRUE,FALSE,FALSE,"right","right",FALSE,FALSE,TRUE,FALSE,TRUE,"left","[""middle"",""right""]",NA,3318.19999998808,1042.30000001192,0,18,"middle",18,FALSE,TRUE,FALSE,80,1247.90000003576,0,0,0,0,37,"right","middle",TRUE,FALSE,FALSE,"right","right",NA,1411.80000001192
"5dcdb60be64aaa07c14065cc",1,"Chalk",3,"Bike",1,"Puzzles",3,TRUE,FALSE,FALSE,"left","left",FALSE,TRUE,FALSE,FALSE,TRUE,"middle","[""left"",""right""]",NA,5806.69999999995,1686.19999999995,0,33,"middle",16,TRUE,TRUE,FALSE,55,2225.40000000014,0,0,0,0,36,"left","middle",TRUE,FALSE,FALSE,"left","left",NA,4180.5
"588938e3b08cc30001b77771",1,"Eggs",4,"Rice",4,"Hoop",5,FALSE,FALSE,TRUE,"middle","right",TRUE,FALSE,FALSE,FALSE,TRUE,"left","[""middle"",""right""]",NA,7214.80000001192,1149.30000001192,0,9,"right",11,FALSE,FALSE,FALSE,20,2247.5,0,0,0,0,4,"middle","right",FALSE,TRUE,FALSE,"left","right",NA,5040
"5f82efa422d3c740b3e41b30",1,"Duck",4,"Stick",5,"Water",2,FALSE,FALSE,TRUE,"left","right",TRUE,FALSE,FALSE,FALSE,TRUE,"middle","[""left"",""right""]",NA,6058.79999995232,1559.90000003576,0,15,"right",20,FALSE,TRUE,FALSE,0,4032.59999996424,0,0,0,0,30,"left","right",FALSE,FALSE,TRUE,"left","right",NA,4044.5
"64136f616f4202871d6bb12e",1,"Cup",4,"Bracelet",3,"Dolls",1,FALSE,FALSE,TRUE,"middle","left",FALSE,TRUE,FALSE,FALSE,TRUE,"right","[""left"",""middle""]",NA,4795,1380.99999999999,0,18,"right",20,FALSE,FALSE,FALSE,90,1680,0,0,0,0,21,"middle","right",TRUE,FALSE,FALSE,"left","left",NA,2616
"5f1833a16e55c522eeaf4dbe",1,"Milk",1,"Bat",1,"Bracelet",1,FALSE,FALSE,TRUE,"middle","right",FALSE,TRUE,FALSE,FALSE,TRUE,"left","[""middle"",""right""]",NA,3299.80000001192,1596.20000004768,0,20,"left",25,FALSE,TRUE,FALSE,99,1566.60000002384,0,0,0,0,25,"middle","left",FALSE,FALSE,TRUE,"middle","right",NA,2712.59999996424
"56aa2ab9402d62000c7096f2",1,"Sunglasses",5,"Octopus",2,"Pajamas",4,FALSE,TRUE,FALSE,"left","right",FALSE,FALSE,TRUE,FALSE,TRUE,"left","[""middle"",""right""]",NA,3208.90000009537,2804.2000002861,0,31,"middle",21,FALSE,TRUE,FALSE,70,1837.2000002861,0,0,0,0,45,"left","middle",FALSE,TRUE,FALSE,"left","right",NA,4334.69999980927
"66cc906a1d6bea34dd2e57b0",1,"Can",2,"Mouse",4,"Water",3,FALSE,TRUE,FALSE,"right","middle",TRUE,FALSE,FALSE,FALSE,TRUE,"right","[""left"",""middle""]",NA,7114.79999999888,1630.09999999963,0,38,"middle",36,TRUE,FALSE,TRUE,85,1349.80000000075,1,0,0,0,40,"right","middle",TRUE,FALSE,FALSE,"middle","middle",NA,1402.69999999925
"6720fbc84253185973cbe564",2,"Plate",5,"Bottle",4,"Head",1,FALSE,FALSE,TRUE,"left","middle",FALSE,TRUE,FALSE,FALSE,TRUE,"right","[""left"",""middle""]",NA,2138,591.800000011921,0,20,"right",13,TRUE,TRUE,FALSE,79,1038.30000001192,0,0,0,0,30,"left","right",FALSE,FALSE,TRUE,"left","middle",NA,4760.59999996424
"56e967b74c71f00005d78743",2,"Stamps",2,"Milk",3,"Mountain",3,FALSE,FALSE,TRUE,"right","middle",TRUE,FALSE,FALSE,FALSE,TRUE,"left","[""middle"",""right""]",NA,3451.19999998808,1112,1,33,"middle",17,FALSE,TRUE,FALSE,25,993.59999999404,0,0,0,0,35,"right","middle",FALSE,FALSE,TRUE,"right","middle",NA,3803.59999999404
"5cf6ee10d5478e0001da72bd",2,"Books",3,"Scissors",4,"Broom",1,TRUE,FALSE,FALSE,"middle","middle",FALSE,FALSE,TRUE,FALSE,TRUE,"right","[""left"",""middle""]",NA,2788.60000002384,894,1,20,"left",13,FALSE,FALSE,TRUE,29,1339.70000001788,0,0,0,0,26,"middle","left",FALSE,FALSE,TRUE,"left","middle",NA,2365.80000001192
"6120e3a34f6ad742437d6c95",2,"Bubbles",5,"Video Tape",5,"Shorts",1,FALSE,FALSE,TRUE,"left","right",FALSE,TRUE,FALSE,FALSE,TRUE,"middle","[""left"",""right""]",NA,3137.5,757,0,18,"middle",20,FALSE,FALSE,TRUE,97,794.100000023842,0,0,0,0,42,"left","middle",FALSE,TRUE,FALSE,"middle","right",NA,2194.5
"594016e06ee2c800016c09d1",2,"String",4,"Marker",3,"Sweater",1,FALSE,TRUE,FALSE,"left","right",TRUE,FALSE,FALSE,FALSE,TRUE,"left","[""middle"",""right""]",NA,1583.70000000019,1537.79999999981,1,31,"right",16,FALSE,FALSE,FALSE,21,2358.70000000019,0,0,0,0,14,"left","right",FALSE,FALSE,TRUE,"middle","right",NA,3130.40000000037
"5791dae225cb71000128ad5b",2,"Airplane",4,"Tissue",5,"Bridge",5,TRUE,FALSE,FALSE,"middle","middle",FALSE,FALSE,TRUE,FALSE,TRUE,"left","[""middle"",""right""]",NA,2001.70000004768,1158.39999985695,0,18,"right",16,FALSE,FALSE,FALSE,42,990.199999809265,0,0,0,0,29,"middle","right",FALSE,TRUE,FALSE,"left","middle",NA,2245
"67696d49d386c9789b03b1da",2,"Shoes",2,"Water",4,"Pancakes",1,TRUE,FALSE,FALSE,"middle","middle",FALSE,FALSE,TRUE,FALSE,TRUE,"right","[""left"",""middle""]",NA,3752.09999999404,1271.20000000298,0,32,"left",18,FALSE,TRUE,FALSE,51,1502.10000000149,0,0,0,0,20,"middle","left",TRUE,FALSE,FALSE,"middle","middle",NA,3618.30000000447
"67db4c889794c3be29370b1d",2,"Blocks",4,"Popsicle",4,"Butter",5,TRUE,FALSE,FALSE,"middle","middle",FALSE,TRUE,FALSE,FALSE,TRUE,"right","[""left"",""middle""]",NA,2431.19999998808,1790.69999998808,0,28,"right",17,FALSE,TRUE,FALSE,100,2133.19999998808,0,0,0,0,48,"middle","right",TRUE,FALSE,FALSE,"middle","middle",NA,2659.80000001192
"60cf0d251a90eb823bc9b740",2,"Bow",2,"Underwear",4,"Marker",1,FALSE,FALSE,TRUE,"middle","left",TRUE,FALSE,FALSE,FALSE,TRUE,"right","[""left"",""middle""]",NA,2205.60000002384,607.300000011921,0,16,"left",20,FALSE,TRUE,FALSE,78,1044.19999998808,0,0,0,0,48,"middle","left",FALSE,FALSE,TRUE,"middle","left",NA,6910.29999995232
"63469662d9e84d379f52c166",2,"Cloud",2,"Stove",3,"Hammer",2,FALSE,TRUE,FALSE,"middle","right",TRUE,FALSE,FALSE,FALSE,TRUE,"middle","[""left"",""right""]",NA,3834.20000000019,2991.29999999981,0,20,"right",20,FALSE,TRUE,FALSE,80,2367,0,1,0,0,30,"middle","right",FALSE,TRUE,FALSE,"middle","right",NA,3409.90000000037
"5cf6e4aae289a80019b6e032",2,"Heart",3,"Meat",4,"Marker",4,TRUE,FALSE,FALSE,"left","left",FALSE,FALSE,TRUE,FALSE,TRUE,"right","[""left"",""middle""]",NA,4346,1640.40000000037,0,30,"middle",18,FALSE,TRUE,FALSE,99,1299,0,0,0,0,28,"left","middle",TRUE,FALSE,FALSE,"left","left",NA,2003.39999999991
"5bb609520cb04c00014efb8a",2,"Ankle",2,"Bandaid",1,"Washcloth",1,TRUE,FALSE,FALSE,"left","left",FALSE,FALSE,TRUE,FALSE,TRUE,"middle","[""left"",""right""]",NA,3630.10000000009,681.300000000279,0,8,"right",35,FALSE,TRUE,FALSE,100,1234.19999999972,0,0,0,0,30,"left","right",TRUE,FALSE,FALSE,"left","left",NA,1763.29999999981
"61282ca83be28773ac7c421f",2,"Purse",3,"Glue",2,"Wing",3,TRUE,FALSE,FALSE,"right","right",FALSE,FALSE,TRUE,FALSE,TRUE,"middle","[""left"",""right""]",NA,6076,2119,0,30,"left",20,TRUE,TRUE,FALSE,51,4241,0,0,0,0,20,"right","left",TRUE,FALSE,FALSE,"right","right",NA,4460.5
"5ee637a18976fc391312fe01",2,"Lion",3,"Pencil",5,"Fire truck",1,TRUE,FALSE,FALSE,"middle","middle",FALSE,FALSE,TRUE,FALSE,TRUE,"right","[""left"",""middle""]",NA,2539.09999999776,1341.80000000075,0,20,"left",22,FALSE,FALSE,TRUE,40,1586.19999999925,0,0,0,0,43,"middle","left",FALSE,FALSE,TRUE,"left","middle",NA,2749.39999999851
"5b9ca13a06114100010699b8",2,"Fork",2,"Dolphin",3,"Wheel",5,FALSE,FALSE,TRUE,"right","left",FALSE,TRUE,FALSE,FALSE,TRUE,"middle","[""left"",""right""]",NA,2853.09999996424,1284.09999996424,0,20,"middle",28,FALSE,FALSE,TRUE,49,1503.20000004768,0,0,0,0,29,"right","middle",FALSE,TRUE,FALSE,"middle","left",NA,3944.90000003576
"66954d8d88d42a3482f13df6",2,"Pig",4,"Tractor",3,"Clown",4,FALSE,TRUE,FALSE,"left","middle",TRUE,FALSE,FALSE,FALSE,TRUE,"left","[""middle"",""right""]",NA,2447,527,0,17,"middle",16,FALSE,TRUE,FALSE,100,1133,0,0,0,0,47,"left","middle",FALSE,TRUE,FALSE,"left","middle",NA,2829
"6304db4577830d43f42d4d26",2,"Glue",1,"Monkey",5,"Dress",3,FALSE,TRUE,FALSE,"middle","left",FALSE,FALSE,TRUE,FALSE,TRUE,"middle","[""left"",""right""]",NA,2139.69999999925,947.700000000186,0,18,"right",23,FALSE,TRUE,FALSE,100,1418.60000000056,0,0,0,0,38,"middle","right",FALSE,TRUE,FALSE,"middle","left",NA,2390.30000000075
"67e7cdfb2d3c81d83ccef700",2,"Crown",5,"Pen",2,"Newspaper",5,TRUE,FALSE,FALSE,"right","right",FALSE,TRUE,FALSE,FALSE,TRUE,"middle","[""left"",""right""]",NA,6179,3160,0,15,"middle",35,FALSE,FALSE,FALSE,57,1397,0,0,0,0,30,"right","middle",FALSE,FALSE,TRUE,"left","right",NA,18496
"67701cb8e95b8934348de694",2,"Shoulders",3,"Crackers",5,"Water",3,FALSE,FALSE,TRUE,"right","left",FALSE,TRUE,FALSE,FALSE,TRUE,"middle","[""left"",""right""]",NA,2350.79999995232,1167.10000002384,0,23,"middle",21,FALSE,FALSE,TRUE,74,869.600000023842,0,0,0,0,32,"right","middle",FALSE,TRUE,FALSE,"middle","left",NA,2962.30000001192
"65107641138d7e50e2a290d0",2,"Cherry",2,"Airplane",1,"Slide",2,TRUE,FALSE,FALSE,"left","left",FALSE,FALSE,TRUE,TRUE,TRUE,"right","[""left"",""middle""]",NA,2499.79999995232,1273.39999997616,1,35,"middle",9,FALSE,TRUE,FALSE,100,805.700000047684,0,0,0,0,30,"left","middle",TRUE,FALSE,FALSE,"left","left",NA,3063.70000004768
"5be30116dd850e0001d2ba99",2,"Motorcycle",4,"Mouse",1,"Shovel",1,TRUE,FALSE,FALSE,"left","left",FALSE,FALSE,TRUE,FALSE,TRUE,"middle","[""left"",""right""]",NA,1671.39999997616,846.800000071526,0,30,"right",16,FALSE,TRUE,FALSE,99,818.900000095367,0,0,0,0,45,"left","right",TRUE,FALSE,FALSE,"left","left",NA,1696.70000004768
"5e38777a87243b095c67543b",2,"Popsicle",2,"Butterfly",5,"Rock",5,FALSE,FALSE,TRUE,"left","right",FALSE,TRUE,FALSE,FALSE,TRUE,"middle","[""left"",""right""]",NA,2623.19999998808,1538.30000001192,0,8,"middle",10,TRUE,FALSE,FALSE,0,1110.69999998808,0,0,0,0,6,"left","middle",TRUE,FALSE,FALSE,"right","right",NA,2132.79999998212
"60325f7577ccb72319bf3c63",2,"Wagon",5,"Candy",5,"Pencil",1,FALSE,FALSE,TRUE,"middle","right",FALSE,TRUE,FALSE,FALSE,TRUE,"left","[""middle"",""right""]",NA,5239.39999997616,1917,0,20,"left",13,FALSE,TRUE,FALSE,65,1174.10000002384,0,0,0,0,35,"middle","left",FALSE,FALSE,TRUE,"middle","right",NA,2257.40000003576
"59d4c100078dbe0001951236",2,"Wheel",1,"Shoulders",4,"Chair",1,FALSE,TRUE,FALSE,"left","right",FALSE,FALSE,TRUE,FALSE,TRUE,"left","[""middle"",""right""]",NA,4747.30000000028,1249.10000000009,0,10,"middle",8,FALSE,TRUE,FALSE,19,1543.20000000019,0,0,0,0,27,"left","middle",FALSE,TRUE,FALSE,"left","right",NA,5540.19999999972
"677406a14c6e104dba32e029",2,"Toilet",4,"Cat",2,"Cloud",2,FALSE,TRUE,FALSE,"middle","right",TRUE,FALSE,FALSE,FALSE,TRUE,"middle","[""left"",""right""]",NA,3513,1416,0,36,"right",19,FALSE,FALSE,TRUE,43,1268,0,0,0,0,15,"middle","right",TRUE,FALSE,FALSE,"right","right",NA,2180
"669faeb6d07d662c8f3de95b",2,"Glove",1,"Drum",3,"Washcloth",1,FALSE,FALSE,TRUE,"right","left",TRUE,FALSE,FALSE,FALSE,TRUE,"middle","[""left"",""right""]",NA,1974,1019.90000000596,0,20,"left",25,FALSE,FALSE,FALSE,65,1463.89999997616,0,0,0,0,10,"right","left",FALSE,TRUE,FALSE,"middle","left",NA,1984
"66465c850d9a3e177f2649fa",2,"Flower",3,"Bee",5,"Soap",1,FALSE,TRUE,FALSE,"left","right",TRUE,FALSE,FALSE,FALSE,TRUE,"left","[""middle"",""right""]",NA,4660.10000002384,782.199999928474,0,12,"right",34,FALSE,FALSE,FALSE,24,1248.39999997616,0,0,0,0,45,"left","right",FALSE,FALSE,TRUE,"middle","right",NA,5554
"55daf7b369dbc30005b68ac9",2,"Cheese",1,"Butter",1,"Vacuum",1,TRUE,FALSE,FALSE,"right","right",FALSE,FALSE,TRUE,FALSE,TRUE,"middle","[""left"",""right""]",NA,4590.5,934.100000023842,0,21,"left",15,FALSE,TRUE,FALSE,86,1437.59999996424,0,0,0,0,40,"right","left",TRUE,FALSE,FALSE,"right","right",NA,2795.89999997616
"62e3f7b224ec70641fd86b7b",2,"Bird",2,"Spoon",4,"Corn",5,FALSE,FALSE,TRUE,"right","middle",TRUE,FALSE,FALSE,FALSE,TRUE,"left","[""middle"",""right""]",NA,1686.40000000002,1287,0,25,"middle",15,FALSE,TRUE,FALSE,100,1867.39999999991,0,0,0,0,44,"right","middle",FALSE,FALSE,TRUE,"right","middle",NA,2887.40000000014
"5c4b987538878c0001c7883b",2,"Carrots",2,"Bandaid",4,"Camera",4,FALSE,TRUE,FALSE,"middle","right",TRUE,FALSE,FALSE,FALSE,TRUE,"middle","[""left"",""right""]",NA,5409.39999997616,1200.20000004768,0,35,"right",40,FALSE,TRUE,FALSE,90,1229.79999995232,0,0,0,0,42,"middle","right",FALSE,TRUE,FALSE,"middle","right",NA,2721.59999990463
"5ad8dbe2e34a050001b83eac",2,"Fly",5,"Duck",2,"Owl",1,FALSE,FALSE,TRUE,"left","middle",FALSE,TRUE,FALSE,FALSE,TRUE,"right","[""left"",""middle""]",NA,3614.69999992847,1168.69999992847,1,14,"right",15,FALSE,TRUE,FALSE,100,1391.5,0,0,0,0,10,"left","right",FALSE,FALSE,TRUE,"left","middle",NA,1831.5
"661403131cecbe255b64ca6f",2,"Swing",1,"Camera",3,"Tie",5,TRUE,FALSE,FALSE,"right","right",FALSE,FALSE,TRUE,FALSE,TRUE,"middle","[""left"",""right""]",NA,1328.20000000019,1019.90000000037,0,38,"left",12,TRUE,TRUE,FALSE,80,1219.59999999963,0,0,0,0,45,"right","left",TRUE,FALSE,FALSE,"right","right",NA,1410.10000000056
"5ee0df4ff87654455ad1cb9a",2,"Battery",3,"Tape",5,"Snow",1,FALSE,FALSE,TRUE,"middle","right",TRUE,FALSE,FALSE,FALSE,TRUE,"left","[""middle"",""right""]",NA,7645,1351,0,35,"right",28,FALSE,TRUE,FALSE,32,1023,0,0,0,0,39,"middle","right",FALSE,FALSE,TRUE,"middle","right",NA,2679
"66b41d5d3c2a978a7aac2264",2,"Soup",3,"Spoon",2,"Blanket",2,FALSE,TRUE,FALSE,"right","left",FALSE,FALSE,TRUE,FALSE,TRUE,"right","[""left"",""middle""]",NA,4473.5,1036.29999999981,0,35,"middle",25,FALSE,TRUE,FALSE,70,2224.19999999925,0,0,0,0,20,"right","middle",FALSE,TRUE,FALSE,"right","left",NA,2840.70000000019
"5d4b085ef76ba3001c7510de",2,"Ice Cream",2,"Video Tape",1,"Pear",3,TRUE,FALSE,FALSE,"right","right",FALSE,FALSE,TRUE,TRUE,TRUE,"left","[""middle"",""right""]",NA,2479.19999999995,1241.69999999995,0,17,"middle",17,FALSE,TRUE,FALSE,100,1959.19999999995,0,0,0,0,45,"right","middle",TRUE,FALSE,FALSE,"right","right",NA,1859.69999999995
"5d8e154af2858200171fdb95",2,"Fingers",1,"Mountain",3,"Bananas",1,TRUE,FALSE,FALSE,"right","right",FALSE,TRUE,FALSE,TRUE,TRUE,"middle","[""left"",""right""]",NA,1576.19999998808,584.199999988079,0,28,"middle",28,FALSE,TRUE,FALSE,68,1594.5,0,0,0,0,19,"right","middle",TRUE,FALSE,FALSE,"right","right",NA,1851.90000003576
"63f82a4ff43ec144ca3622a8",2,"Fire",3,"Motorcycle",5,"Chips",3,FALSE,FALSE,TRUE,"right","left",FALSE,TRUE,FALSE,FALSE,TRUE,"middle","[""left"",""right""]",NA,3808.19999998808,1743.10000002384,1,20,"middle",10,FALSE,FALSE,TRUE,8,1615.5,0,0,0,0,31,"right","middle",FALSE,TRUE,FALSE,"middle","left",NA,7915.89999997616
"66fceda149718a86f36761b4",2,"Chicken",5,"Dog",5,"Sheep",1,TRUE,FALSE,FALSE,"right","right",FALSE,TRUE,FALSE,FALSE,TRUE,"middle","[""left"",""right""]",NA,2065.09999999963,1494.69999999925,0,11,"middle",11,FALSE,TRUE,FALSE,25,2957.60000000149,0,0,0,0,21,"right","middle",TRUE,FALSE,FALSE,"right","right",NA,2494.90000000037
"59f0eda5e75b450001a699a7",2,"Boat",2,"Shovel",5,"Bathtub",3,TRUE,FALSE,FALSE,"right","right",FALSE,TRUE,FALSE,FALSE,TRUE,"middle","[""left"",""right""]",NA,2669.09999990463,2247.40000009537,0,14,"middle",14,FALSE,FALSE,TRUE,21,1090.40000009537,0,0,0,0,30,"right","middle",FALSE,TRUE,FALSE,"middle","right",NA,2772.90000009537
"5f53b958c8cfea6e2104c5b6",2,"Refrigerator",1,"Paints",2,"Door",3,TRUE,FALSE,FALSE,"right","right",FALSE,TRUE,FALSE,FALSE,TRUE,"left","[""middle"",""right""]",NA,1503.5,905.099999904633,0,27,"left",40,FALSE,TRUE,FALSE,58,1020.59999990463,0,0,0,0,28,"right","left",TRUE,FALSE,FALSE,"right","right",NA,2130.5
"65dca6bb88611ac902cc60fb",2,"Taco",1,"Toilet",4,"Sandwich",5,FALSE,TRUE,FALSE,"left","middle",FALSE,FALSE,TRUE,FALSE,TRUE,"left","[""middle"",""right""]",NA,3372.20000004768,1730.20000004768,1,27,"right",9,TRUE,FALSE,TRUE,19,1633.79999995232,0,0,0,0,31,"left","right",FALSE,FALSE,TRUE,"right","middle",NA,6674
"60fc2ec58ad0da367daee3c1",2,"String",1,"Dress",3,"Boat",3,FALSE,TRUE,FALSE,"middle","left",FALSE,FALSE,TRUE,FALSE,TRUE,"middle","[""left"",""right""]",NA,2929.59999996424,1051.59999996424,0,12,"right",38,FALSE,TRUE,FALSE,2,1330.69999998808,0,0,0,0,33,"middle","right",FALSE,TRUE,FALSE,"middle","left",NA,2456.19999998808
"60a3ac51b06fa9eb29a105bc",2,"String",2,"Hips",4,"Box",5,FALSE,FALSE,TRUE,"right","middle",FALSE,TRUE,FALSE,FALSE,TRUE,"left","[""middle"",""right""]",NA,3164,844.999999999985,1,8,"left",19,FALSE,TRUE,FALSE,92,969,0,0,0,0,38,"right","left",FALSE,FALSE,TRUE,"right","middle",NA,1684
"5e3068330082f106875fb3f2",2,"Square",5,"Towels",4,"Chips",4,FALSE,FALSE,TRUE,"right","left",TRUE,FALSE,FALSE,FALSE,TRUE,"middle","[""left"",""right""]",NA,1782.59999996424,542.399999976158,0,20,"left",29,FALSE,TRUE,FALSE,27,1747.39999997616,0,0,0,0,16,"right","left",FALSE,FALSE,TRUE,"right","left",NA,1294.69999998808
"660de2426df2c14f27678f6b",2,"Truck",3,"Cable",2,"Helicopter",5,FALSE,TRUE,FALSE,"right","left",FALSE,FALSE,TRUE,FALSE,TRUE,"right","[""left"",""middle""]",NA,1926.80000007153,1497.39999997616,1,20,"middle",19,FALSE,TRUE,FALSE,73,808.799999952316,0,0,0,0,22,"right","middle",FALSE,TRUE,FALSE,"right","left",NA,3679.70000004768
"5eea9a9ea8d6d71ba912a73e",2,"Candle",2,"Bottle",4,"Tricycle",4,TRUE,FALSE,FALSE,"right","right",FALSE,FALSE,TRUE,FALSE,TRUE,"left","[""middle"",""right""]",NA,3631.80000001192,1143.39999997616,0,37,"middle",11,FALSE,FALSE,TRUE,69,760.399999976158,0,0,0,0,44,"right","middle",FALSE,FALSE,TRUE,"middle","right",NA,2264.5
"5eced9328405902eef967571",2,"Sand",1,"Net",2,"Bird",5,FALSE,FALSE,TRUE,"left","middle",FALSE,TRUE,FALSE,FALSE,TRUE,"right","[""left"",""middle""]",NA,2348.39999999944,1385.40000000037,0,30,"right",15,FALSE,TRUE,FALSE,38,1075.59999999963,0,0,0,0,35,"left","right",FALSE,FALSE,TRUE,"left","middle",NA,3046.19999999925
"5eec48a2a0a86044492efa67",2,"Lamp",2,"Ankle",3,"Envelope",3,TRUE,FALSE,FALSE,"middle","middle",FALSE,TRUE,FALSE,FALSE,TRUE,"right","[""left"",""middle""]",NA,2962.5,1146.30000001192,0,21,"right",20,FALSE,TRUE,FALSE,23,982.199999988079,0,0,0,0,45,"middle","right",TRUE,FALSE,FALSE,"middle","middle",NA,3244.10000002384
"5c726173c66879000152e516",2,"Paper",2,"Magazine",3,"Apples",1,TRUE,FALSE,FALSE,"right","right",FALSE,TRUE,FALSE,TRUE,TRUE,"middle","[""left"",""right""]",NA,3119.30000000005,1481.90000000014,0,20,"middle",30,FALSE,TRUE,FALSE,100,1087.30000000005,0,0,0,0,20,"right","middle",TRUE,FALSE,FALSE,"right","right",NA,2012.5
"5c5b55ce32810e0001c3456b",2,"Napkin",1,"Bracelet",4,"Video Tape",2,FALSE,TRUE,FALSE,"right","left",FALSE,FALSE,TRUE,FALSE,TRUE,"right","[""left"",""middle""]",NA,4434,1322,0,34,"middle",15,FALSE,FALSE,TRUE,32,1755,0,0,0,0,19,"right","middle",FALSE,FALSE,TRUE,"middle","left",NA,5592
"5f4412624052727181839e3a",2,"Hose",1,"Clock",3,"Hammer",4,TRUE,FALSE,FALSE,"right","right",FALSE,FALSE,TRUE,FALSE,TRUE,"middle","[""left"",""right""]",NA,2239,976,0,22,"left",12,FALSE,TRUE,FALSE,99,1175,0,1,0,0,40,"right","left",TRUE,FALSE,FALSE,"right","right",NA,1523
"662939c49821886e0246c494",2,"Sheep",2,"Bowl",3,"Fire",3,FALSE,TRUE,FALSE,"middle","left",FALSE,FALSE,TRUE,FALSE,TRUE,"middle","[""left"",""right""]",NA,1452.09999996424,1159.19999998808,0,35,"right",30,FALSE,TRUE,FALSE,21,1120.69999998808,0,0,0,0,12,"middle","right",FALSE,TRUE,FALSE,"middle","left",NA,2598.69999998808
"5d542c3a5af5900019bc80c4",2,"Bubbles",5,"Brush",5,"Pajamas",3,FALSE,TRUE,FALSE,"left","right",TRUE,FALSE,FALSE,FALSE,TRUE,"left","[""middle"",""right""]",NA,1981.20000004768,1266.39999997616,0,15,"right",17,FALSE,TRUE,FALSE,52,1250.5,0,0,0,0,48,"left","right",FALSE,TRUE,FALSE,"left","right",NA,2452.10000002384
"5ced0da70afd6e0001a9f211",2,"Bowl",4,"Stamps",4,"Eggs",4,FALSE,TRUE,FALSE,"right","middle",TRUE,FALSE,FALSE,FALSE,TRUE,"right","[""left"",""middle""]",NA,2631.09999999404,1046.80000001192,0,5,"middle",45,FALSE,TRUE,FALSE,54,1169.40000000596,0,0,0,0,41,"right","middle",FALSE,TRUE,FALSE,"right","middle",NA,3387.5
"6475208cd6045ed7c2e281ab",2,"Rabbit",4,"Belt",2,"Ladder",3,FALSE,TRUE,FALSE,"left","right",TRUE,FALSE,FALSE,FALSE,TRUE,"left","[""middle"",""right""]",NA,3826,1442.09999996424,0,27,"right",23,FALSE,TRUE,FALSE,31,2553.40000003576,0,0,0,0,40,"left","right",FALSE,TRUE,FALSE,"left","right",NA,6610.19999998808
"570ff6c4736f6a00095576c7",2,"Hot Dog",3,"Hoop",2,"Tummy",5,FALSE,FALSE,TRUE,"middle","left",TRUE,FALSE,FALSE,FALSE,TRUE,"right","[""left"",""middle""]",NA,1730.5,1013.09999990463,0,20,"left",25,FALSE,FALSE,TRUE,69,1071.59999990463,0,0,0,0,10,"middle","left",TRUE,FALSE,FALSE,"left","left",NA,2472.70000004768
"5b4ec32e995d4e00010944ce",2,"Horse",4,"Boat",3,"Yo-yo",2,FALSE,TRUE,FALSE,"left","middle",FALSE,FALSE,TRUE,FALSE,TRUE,"left","[""middle"",""right""]",NA,2866.5,881.100000023842,0,17,"right",15,FALSE,TRUE,FALSE,72,1056.09999996424,0,0,0,0,36,"left","right",FALSE,TRUE,FALSE,"left","middle",NA,3578.80000001192
"57bafa6cc308ca00014527c2",2,"Umbrella",1,"Hat",4,"Pie",4,FALSE,FALSE,TRUE,"right","left",FALSE,TRUE,FALSE,FALSE,TRUE,"middle","[""left"",""right""]",NA,4180.80000000447,1435,0,10,"middle",15,FALSE,TRUE,FALSE,85,2133.60000000149,0,0,0,0,45,"right","middle",FALSE,FALSE,TRUE,"right","left",NA,2852.60000000149
"66956649d7179281d46fa6f2",2,"Feet",3,"Leg",3,"Dress",5,FALSE,TRUE,FALSE,"right","left",FALSE,FALSE,TRUE,FALSE,TRUE,"right","[""left"",""middle""]",NA,6081.5,1167,0,33,"middle",14,FALSE,FALSE,TRUE,17,1592.90000000596,0,0,0,0,18,"right","middle",FALSE,FALSE,TRUE,"middle","left",NA,2825.10000000894
"63e5a6690eeedc20da056717",2,"Bus",4,"Stove",2,"Pants",1,TRUE,FALSE,FALSE,"left","left",FALSE,TRUE,FALSE,FALSE,TRUE,"middle","[""left"",""right""]",NA,4933.70000001788,2064.29999998212,0,18,"middle",19,FALSE,FALSE,TRUE,61,1053.69999998808,0,0,0,0,32,"left","middle",FALSE,TRUE,FALSE,"middle","left",NA,4506.09999999404
"5d352f8bb02857001963539a",2,"Radio",4,"Candle",4,"Shoes",4,FALSE,FALSE,TRUE,"left","middle",FALSE,TRUE,FALSE,FALSE,TRUE,"right","[""left"",""middle""]",NA,3948.5,1079.7000002861,0,16,"right",10,FALSE,FALSE,FALSE,38,1048.60000038147,0,0,0,0,48,"left","right",TRUE,FALSE,FALSE,"middle","middle",NA,2918.80000019073
"5cf66ed8912f0b0017c50b52",2,"Crown",4,"Hands",4,"Swing",3,TRUE,FALSE,FALSE,"right","right",FALSE,FALSE,TRUE,FALSE,TRUE,"middle","[""left"",""right""]",NA,2510,998.59999999404,0,12,"left",27,FALSE,FALSE,TRUE,78,1115.60000002384,0,0,0,0,46,"right","left",FALSE,FALSE,TRUE,"left","right",NA,2063.29999998212
"5cfb459229a6c2001764e10d",2,"Toes",4,"Backpack",4,"Ankle",3,FALSE,TRUE,FALSE,"middle","right",FALSE,FALSE,TRUE,FALSE,TRUE,"middle","[""left"",""right""]",NA,3545,704,0,24,"left",26,FALSE,TRUE,FALSE,50,920,0,0,0,0,40,"middle","left",FALSE,TRUE,FALSE,"middle","right",NA,3508
"5b79dfb9db11320001c3d3f4",2,"Swing",4,"Hands",2,"Bone",5,FALSE,FALSE,TRUE,"left","right",FALSE,TRUE,FALSE,FALSE,TRUE,"middle","[""left"",""right""]",NA,4577.29999998212,763.800000011921,1,28,"middle",15,FALSE,FALSE,TRUE,54,1420.20000001788,0,1,0,0,25,"left","middle",FALSE,TRUE,FALSE,"middle","right",NA,2882.5
"654e42ed750e4e81219b2c0e",2,"Suitcase",3,"Owl",2,"Airplane",4,TRUE,FALSE,FALSE,"middle","middle",FALSE,FALSE,TRUE,FALSE,TRUE,"right","[""left"",""middle""]",NA,3907,998,0,35,"left",26,FALSE,TRUE,FALSE,48,2031.19999980927,0,0,0,0,34,"middle","left",TRUE,FALSE,FALSE,"middle","middle",NA,6242.90000009537
"63d7b30ddc8ceb61c74fe85b",2,"Juice",2,"Soap",3,"Dolls",1,FALSE,FALSE,TRUE,"middle","left",TRUE,FALSE,FALSE,FALSE,TRUE,"right","[""left"",""middle""]",NA,4813.60000000149,1960.10000000149,0,39,"left",15,FALSE,FALSE,FALSE,47,1368.80000000075,0,0,0,0,32,"middle","left",FALSE,TRUE,FALSE,"right","left",NA,2616
"65cb708afe5755feaeec417f",2,"Frog",1,"Tricycle",1,"Magazine",5,FALSE,FALSE,TRUE,"right","middle",FALSE,TRUE,FALSE,FALSE,TRUE,"left","[""middle"",""right""]",NA,1648.60000002384,737.300000071526,1,15,"left",10,FALSE,TRUE,FALSE,99,666.100000023842,0,0,0,0,44,"right","left",FALSE,FALSE,TRUE,"right","middle",NA,1333.70000004768
"6155e95c0808b015514b34e0",2,"Rabbit",3,"Chalk",4,"Bee",2,FALSE,FALSE,TRUE,"right","middle",TRUE,FALSE,FALSE,FALSE,TRUE,"left","[""middle"",""right""]",NA,2105.10000002384,648.5,1,30,"middle",27,FALSE,TRUE,FALSE,58,1348.5,0,0,0,0,16,"right","middle",FALSE,FALSE,TRUE,"right","middle",NA,2097.70000004768
"5bd2d397f92a480001c64dcb",2,"Owl",4,"Pillow",5,"Fingernail",5,FALSE,TRUE,FALSE,"right","left",FALSE,FALSE,TRUE,FALSE,TRUE,"right","[""left"",""middle""]",NA,1427,577,1,17,"middle",10,FALSE,FALSE,FALSE,38,1512,0,0,0,0,15,"right","middle",TRUE,FALSE,FALSE,"left","left",NA,2269
"677a8e5affbe5673b3a79e6b",2,"Shoes",3,"Helicopter",2,"Puppets",1,FALSE,TRUE,FALSE,"left","right",FALSE,FALSE,TRUE,FALSE,TRUE,"left","[""middle"",""right""]",NA,3667,1939,0,30,"middle",19,TRUE,TRUE,FALSE,33,1317,0,0,0,0,15,"left","middle",FALSE,TRUE,FALSE,"left","right",NA,2538
"66b8e8f12fa9160e4ca9f25b",2,"Shovel",1,"Bike",2,"Butterfly",3,FALSE,TRUE,FALSE,"right","left",FALSE,FALSE,TRUE,FALSE,TRUE,"right","[""left"",""middle""]",NA,2765.29999999702,850.29999999702,0,25,"middle",25,TRUE,TRUE,FALSE,84,968.29999999702,0,0,0,0,45,"right","middle",FALSE,TRUE,FALSE,"right","left",NA,1425.5
"616ef680ab8ca318a227f5ec",2,"Washcloth",4,"Hat",3,"Nose",4,FALSE,TRUE,FALSE,"middle","left",TRUE,FALSE,FALSE,FALSE,TRUE,"middle","[""left"",""right""]",NA,3022.39999997616,1854,0,14,"left",36,FALSE,TRUE,FALSE,68,1788.30000007153,0,0,0,0,22,"middle","left",FALSE,TRUE,FALSE,"middle","left",NA,5217.09999990463
"676f0d51832c4a60f2d8cb96",2,"Zebra",5,"Fire truck",1,"Juice",4,TRUE,FALSE,FALSE,"right","right",FALSE,TRUE,FALSE,FALSE,TRUE,"middle","[""left"",""right""]",NA,2102.40000000224,1464.69999999925,1,30,"middle",15,FALSE,TRUE,FALSE,71,1044.5,0,0,0,0,38,"right","middle",TRUE,FALSE,FALSE,"right","right",NA,1997.20000000298
"67422eccacb7146efb2e7af0",2,"Pants",3,"Chalk",4,"Swing",1,FALSE,TRUE,FALSE,"middle","left",TRUE,FALSE,FALSE,FALSE,TRUE,"middle","[""left"",""right""]",NA,3988.59999990463,905.600000023842,1,26,"left",24,FALSE,TRUE,FALSE,100,1639.29999995232,0,0,0,0,46,"middle","left",FALSE,TRUE,FALSE,"middle","left",NA,2895.89999997616
"6658c56f3d9230d99c3e6752",2,"Duck",5,"Wheel",3,"Computer",1,FALSE,FALSE,TRUE,"left","right",TRUE,FALSE,FALSE,FALSE,TRUE,"middle","[""left"",""right""]",NA,5401.90000000224,4110.19999999925,0,17,"right",18,FALSE,FALSE,FALSE,56,1986.19999999925,0,0,0,0,30,"left","right",FALSE,TRUE,FALSE,"middle","right",NA,2578.80000000075
"654a86d08714f739c9fcea21",2,"Rabbit",1,"Yogurt",2,"Bug",4,TRUE,FALSE,FALSE,"right","right",FALSE,FALSE,TRUE,FALSE,TRUE,"left","[""middle"",""right""]",NA,3998.19999999925,2235.19999999925,0,33,"middle",10,TRUE,TRUE,FALSE,68,4218.89999999851,0,0,0,0,15,"right","middle",TRUE,FALSE,FALSE,"right","right",NA,2388.29999999888
"5ec3eabec8f93307a60c5d1b",2,"Duck",5,"Meat",5,"Pancakes",2,FALSE,FALSE,TRUE,"right","left",FALSE,TRUE,FALSE,FALSE,TRUE,"middle","[""left"",""right""]",NA,1582,1058,0,20,"middle",33,FALSE,FALSE,FALSE,26,749,0,0,0,0,21,"right","middle",TRUE,FALSE,FALSE,"left","left",NA,3667
"6786d7955dfbf40eae7ed3d9",2,"Bat",1,"Rope",2,"Newspaper",3,TRUE,FALSE,FALSE,"right","right",FALSE,TRUE,FALSE,FALSE,TRUE,"middle","[""left"",""right""]",NA,2532,1480.89999997616,1,39,"middle",30,FALSE,TRUE,FALSE,100,1218.69999992847,0,0,0,0,46,"right","middle",TRUE,FALSE,FALSE,"right","right",NA,1832.69999992847
"659ea43fea7c0cc45bbe771f",2,"Ankle",4,"Earring",4,"Tractor",2,TRUE,FALSE,FALSE,"right","right",FALSE,TRUE,FALSE,FALSE,TRUE,"middle","[""left"",""right""]",NA,2359,853.300000190735,0,33,"middle",19,FALSE,FALSE,FALSE,11,898.899999856949,0,0,0,0,38,"right","middle",FALSE,FALSE,TRUE,"left","right",NA,3175.5
"682b8071ffc2da7edd49f10c",2,"Fire",1,"Train",5,"Hips",4,TRUE,FALSE,FALSE,"middle","middle",FALSE,TRUE,FALSE,FALSE,TRUE,"right","[""left"",""middle""]",NA,3355.5,2981.79999999999,0,25,"right",28,TRUE,TRUE,FALSE,67,1339.90000000014,0,0,0,0,26,"middle","right",TRUE,FALSE,FALSE,"middle","middle",NA,5369.69999999995
"5c2ab2de9136140001b90737",2,"Bandaid",4,"Bean",2,"Fingernail",3,FALSE,TRUE,FALSE,"middle","right",FALSE,FALSE,TRUE,FALSE,TRUE,"middle","[""left"",""right""]",NA,4113.30000000075,2495.10000000149,0,21,"left",13,FALSE,TRUE,FALSE,74,1744.30000000075,0,0,0,0,41,"middle","left",FALSE,TRUE,FALSE,"middle","right",NA,7888.09999999776
"5e7fa0e918b10804bb87eb63",2,"Cat",2,"Magazine",3,"Washcloth",2,FALSE,TRUE,FALSE,"left","middle",TRUE,FALSE,FALSE,FALSE,TRUE,"left","[""middle"",""right""]",NA,4208,1558.79999995232,0,38,"middle",13,FALSE,TRUE,FALSE,97,1261.5,0,0,0,0,39,"left","middle",FALSE,TRUE,FALSE,"left","middle",NA,2932.79999995232
"59014ee029f42300013cc5b7",2,"Rock",2,"Turtle",5,"Dog",1,FALSE,FALSE,TRUE,"middle","left",FALSE,TRUE,FALSE,FALSE,TRUE,"right","[""left"",""middle""]",NA,3034.40000009537,2137.19999980927,0,22,"right",32,FALSE,TRUE,FALSE,91,1718.69999980927,0,0,0,0,41,"middle","right",FALSE,FALSE,TRUE,"middle","left",NA,3316.09999990463
"633485c40e46cf7e9a2f2ca1",2,"Magazine",3,"Jump rope",5,"Phone",5,TRUE,FALSE,FALSE,"right","right",FALSE,FALSE,TRUE,FALSE,TRUE,"left","[""middle"",""right""]",NA,5034.39999985695,1074.20000004768,0,23,"middle",15,FALSE,TRUE,FALSE,82,1206.60000014305,0,1,0,0,31,"right","middle",TRUE,FALSE,FALSE,"right","right",NA,2424.40000009537
"5827634ea80bf4000199994b",2,"Spaghetti",1,"Sandwich",2,"Paper",1,TRUE,FALSE,FALSE,"middle","middle",FALSE,TRUE,FALSE,FALSE,TRUE,"left","[""middle"",""right""]",NA,2470.10000002384,1109.5,0,40,"left",10,FALSE,FALSE,TRUE,61,1277.19999992847,0,0,0,0,20,"middle","left",FALSE,TRUE,FALSE,"left","middle",NA,3011.29999995232
"642ef01a04c9f327767cde23",2,"Sticker",3,"Fries",3,"Clock",4,FALSE,TRUE,FALSE,"right","left",FALSE,FALSE,TRUE,FALSE,TRUE,"right","[""left"",""middle""]",NA,3767.69999998808,1802.5,0,11,"middle",8,FALSE,TRUE,FALSE,62,1377,0,0,0,0,37,"right","middle",FALSE,TRUE,FALSE,"right","left",NA,3209.89999997616
"5f3d42de03555c0832cbef73",2,"Shoes",1,"Paints",4,"Shirt",3,TRUE,FALSE,FALSE,"middle","middle",FALSE,TRUE,FALSE,FALSE,TRUE,"right","[""left"",""middle""]",NA,2888.19999999972,555.200000000186,0,16,"right",34,FALSE,TRUE,FALSE,99,2432,0,0,0,0,46,"middle","right",TRUE,FALSE,FALSE,"middle","middle",NA,2654.5
"63ed50df25d0ea08696b393f",2,"Belt",2,"Ant",5,"Tractor",4,TRUE,FALSE,FALSE,"right","right",FALSE,FALSE,TRUE,FALSE,TRUE,"left","[""middle"",""right""]",NA,2947.89999997616,1509.80000001192,0,38,"middle",9,FALSE,TRUE,FALSE,100,1533.80000001192,0,0,0,0,36,"right","middle",TRUE,FALSE,FALSE,"right","right",NA,2324.09999996424
"67d0647157996203f3da1743",2,"Earring",4,"Flashlight",2,"Cloud",5,FALSE,FALSE,TRUE,"right","middle",FALSE,TRUE,FALSE,FALSE,TRUE,"left","[""middle"",""right""]",NA,5117.80000001192,1512.30000001192,1,17,"left",17,FALSE,TRUE,FALSE,90,1802.30000001192,0,0,0,0,43,"right","left",FALSE,FALSE,TRUE,"right","middle",NA,2160.79999995232
"59a734ce0c87a000017481ed",2,"Triangle",3,"Fingernail",4,"Blocks",2,TRUE,FALSE,FALSE,"middle","middle",FALSE,TRUE,FALSE,FALSE,TRUE,"right","[""left"",""middle""]",NA,1915.09999990463,998.600000143051,0,23,"right",13,FALSE,TRUE,FALSE,56,1049.09999990463,0,0,0,0,21,"middle","right",TRUE,FALSE,FALSE,"middle","middle",NA,2144.70000004768
"67665f7b0329bd3e30515ad2",2,"Hoop",5,"Chopsticks",2,"Cookies",3,TRUE,FALSE,FALSE,"middle","middle",FALSE,TRUE,FALSE,FALSE,TRUE,"right","[""left"",""middle""]",NA,3791,1491.39999997616,0,28,"right",29,TRUE,FALSE,TRUE,52,1452.30000001192,0,0,0,0,39,"middle","right",FALSE,TRUE,FALSE,"right","middle",NA,5392.89999997616
"66bb63dab2b110041a61af00",2,"Stars",2,"Pan",1,"Broom",1,FALSE,FALSE,TRUE,"left","middle",TRUE,FALSE,FALSE,FALSE,TRUE,"right","[""left"",""middle""]",NA,2678.5,1229.70000000007,0,26,"middle",29,FALSE,TRUE,FALSE,31,1150.80000000005,0,0,0,0,20,"left","middle",FALSE,FALSE,TRUE,"left","middle",NA,2196.90000000014
"6290fea2c6e6821bf8d3c606",2,"Spaghetti",3,"Lizard",4,"Camera",1,FALSE,FALSE,TRUE,"middle","right",FALSE,TRUE,FALSE,FALSE,TRUE,"left","[""middle"",""right""]",NA,1906.5,760.399999976158,0,18,"left",18,FALSE,TRUE,FALSE,88,823.900000035763,0,0,0,0,37,"middle","left",FALSE,FALSE,TRUE,"middle","right",NA,1371
"5dcdb60be64aaa07c14065cc",2,"Socks",2,"Sandals",2,"Purse",3,FALSE,TRUE,FALSE,"middle","right",FALSE,FALSE,TRUE,FALSE,TRUE,"middle","[""left"",""right""]",NA,3405.69999999995,1539.80000000005,0,33,"left",16,TRUE,FALSE,FALSE,68,1417.19999999995,0,0,0,0,36,"middle","left",TRUE,FALSE,FALSE,"right","right",NA,9310.90000000014
"588938e3b08cc30001b77771",2,"Tummy",5,"Tree",2,"Magazine",1,FALSE,TRUE,FALSE,"left","middle",FALSE,FALSE,TRUE,FALSE,TRUE,"left","[""middle"",""right""]",NA,7244.90000000596,716.300000011921,0,9,"right",11,FALSE,FALSE,FALSE,15,1150.40000000596,0,0,0,0,4,"left","right",TRUE,FALSE,FALSE,"middle","middle",NA,4244.40000000596
"5f82efa422d3c740b3e41b30",2,"Stamps",4,"Crackers",5,"Leaf",1,FALSE,TRUE,FALSE,"middle","right",TRUE,FALSE,FALSE,FALSE,TRUE,"middle","[""left"",""right""]",NA,3707,1125.70000004768,0,15,"right",20,FALSE,FALSE,FALSE,0,1732.5,0,0,0,0,30,"middle","right",FALSE,FALSE,TRUE,"left","right",NA,4902.40000003576
"64136f616f4202871d6bb12e",2,"Water",3,"Grapes",5,"Pants",5,TRUE,FALSE,FALSE,"middle","middle",FALSE,TRUE,FALSE,TRUE,TRUE,"right","[""left"",""middle""]",NA,1710,1248,0,18,"right",20,FALSE,TRUE,FALSE,93,1063,0,0,0,0,21,"middle","right",TRUE,FALSE,FALSE,"middle","middle",NA,1645
"5f1833a16e55c522eeaf4dbe",2,"Bubbles",5,"Grapes",5,"Teapot",1,TRUE,FALSE,FALSE,"middle","middle",FALSE,TRUE,FALSE,TRUE,TRUE,"left","[""middle"",""right""]",NA,1109.19999998808,1064.89999997616,0,20,"left",25,FALSE,TRUE,FALSE,92,1831.89999997616,0,0,0,0,25,"middle","left",TRUE,FALSE,FALSE,"middle","middle",NA,2060.89999997616
"56aa2ab9402d62000c7096f2",2,"Ring",2,"Teapot",5,"Pudding",4,FALSE,FALSE,TRUE,"middle","right",TRUE,FALSE,FALSE,FALSE,TRUE,"left","[""middle"",""right""]",NA,2701.39999961853,1148.60000038147,0,31,"right",21,FALSE,TRUE,FALSE,96,1584.59999990463,0,0,0,0,45,"middle","right",FALSE,FALSE,TRUE,"middle","right",NA,1900.19999980927
"66cc906a1d6bea34dd2e57b0",2,"Knee",3,"Cat",3,"Toothbrush",2,TRUE,FALSE,FALSE,"middle","middle",FALSE,FALSE,TRUE,FALSE,TRUE,"right","[""left"",""middle""]",NA,6264.5,1205.5,0,38,"left",36,TRUE,TRUE,FALSE,90,965.199999999255,1,0,0,0,40,"middle","left",TRUE,FALSE,FALSE,"middle","middle",NA,1580.59999999963
"6720fbc84253185973cbe564",3,"Teeth",2,"Fries",4,"Hips",5,FALSE,FALSE,TRUE,"middle","left",TRUE,FALSE,FALSE,FALSE,TRUE,"right","[""left"",""middle""]",NA,2478.59999996424,515.700000047684,0,20,"left",13,TRUE,TRUE,FALSE,34,2060.40000003576,0,0,0,0,30,"middle","left",FALSE,FALSE,TRUE,"middle","left",NA,2129.80000001192
"56e967b74c71f00005d78743",3,"Stick",2,"Yogurt",4,"Pajamas",1,FALSE,FALSE,TRUE,"middle","right",FALSE,TRUE,FALSE,FALSE,TRUE,"left","[""middle"",""right""]",NA,2178.60000000894,1206.40000000596,1,33,"left",17,FALSE,TRUE,FALSE,100,1987.40000000596,0,0,0,0,35,"middle","left",FALSE,FALSE,TRUE,"middle","right",NA,1259
"5cf6ee10d5478e0001da72bd",3,"Ostrich",3,"Stairs",4,"Stars",2,TRUE,FALSE,FALSE,"left","left",FALSE,FALSE,TRUE,FALSE,TRUE,"right","[""left"",""middle""]",NA,1589.90000000596,910.700000017881,1,20,"middle",13,FALSE,TRUE,FALSE,72,1309.90000000596,0,0,0,0,26,"left","middle",TRUE,FALSE,FALSE,"left","left",NA,2734.90000000596
"6120e3a34f6ad742437d6c95",3,"Lizard",1,"Airplane",2,"Wing",4,FALSE,FALSE,TRUE,"right","left",TRUE,FALSE,FALSE,FALSE,TRUE,"middle","[""left"",""right""]",NA,1938.70000004768,797.800000011921,0,18,"left",20,FALSE,TRUE,FALSE,97,815.299999952316,0,0,0,0,42,"right","left",FALSE,FALSE,TRUE,"right","left",NA,1382.19999998808
"594016e06ee2c800016c09d1",3,"Hat",2,"Stairs",3,"Monkey",3,FALSE,FALSE,TRUE,"middle","right",TRUE,FALSE,FALSE,FALSE,TRUE,"left","[""middle"",""right""]",NA,1732,1566.39999999991,1,31,"right",16,FALSE,FALSE,TRUE,35,1277.20000000019,0,0,0,0,14,"middle","right",TRUE,FALSE,FALSE,"right","right",NA,1858.70000000019
"5791dae225cb71000128ad5b",3,"Cake",4,"Fly",1,"Bus",4,FALSE,TRUE,FALSE,"left","right",TRUE,FALSE,FALSE,FALSE,TRUE,"left","[""middle"",""right""]",NA,1692.20000004768,1116.19999980927,0,18,"right",16,FALSE,FALSE,FALSE,78,610.299999952316,0,0,0,0,29,"left","right",FALSE,FALSE,TRUE,"middle","right",NA,1472.09999990463
"67696d49d386c9789b03b1da",3,"Hair",2,"Hamburger",5,"Iron",5,FALSE,TRUE,FALSE,"right","left",FALSE,FALSE,TRUE,FALSE,TRUE,"right","[""left"",""middle""]",NA,3274,1205.39999999851,0,32,"middle",18,FALSE,FALSE,TRUE,73,1304.60000000149,0,0,0,0,20,"right","middle",FALSE,FALSE,TRUE,"middle","left",NA,2308.80000000447
"67db4c889794c3be29370b1d",3,"Pan",4,"Leaf",4,"Crayons",1,FALSE,FALSE,TRUE,"middle","left",TRUE,FALSE,FALSE,FALSE,TRUE,"right","[""left"",""middle""]",NA,2420.20000004768,2802,0,28,"left",17,FALSE,TRUE,FALSE,98,1852.60000002384,0,0,0,0,48,"middle","left",FALSE,FALSE,TRUE,"middle","left",NA,1907.09999996424
"60cf0d251a90eb823bc9b740",3,"Toothpaste",1,"Bone",2,"Hose",5,FALSE,TRUE,FALSE,"right","left",TRUE,FALSE,FALSE,FALSE,TRUE,"right","[""left"",""middle""]",NA,2526,741.899999976158,0,16,"left",20,FALSE,TRUE,FALSE,83,1043.20000004768,0,0,0,0,48,"right","left",FALSE,TRUE,FALSE,"right","left",NA,2724.5
"63469662d9e84d379f52c166",3,"Car",2,"Camera",1,"Crackers",2,TRUE,FALSE,FALSE,"right","right",FALSE,FALSE,TRUE,FALSE,TRUE,"middle","[""left"",""right""]",NA,3098.90000000037,2134,0,20,"left",20,FALSE,TRUE,FALSE,100,1302,0,1,0,0,30,"right","left",TRUE,FALSE,FALSE,"right","right",NA,2413.09999999963
"5cf6e4aae289a80019b6e032",3,"Flashlight",4,"Watch",2,"Cupcake",1,FALSE,TRUE,FALSE,"right","left",FALSE,FALSE,TRUE,FALSE,TRUE,"right","[""left"",""middle""]",NA,4318.70000000019,1548.40000000037,0,30,"middle",18,FALSE,TRUE,FALSE,97,1272.60000000009,0,0,0,0,28,"right","middle",FALSE,TRUE,FALSE,"right","left",NA,1974.89999999991
"5bb609520cb04c00014efb8a",3,"Ear",1,"Underwear",5,"Zipper",5,FALSE,TRUE,FALSE,"middle","right",TRUE,FALSE,FALSE,FALSE,TRUE,"middle","[""left"",""right""]",NA,2564.30000000028,614.399999999907,0,8,"right",35,FALSE,FALSE,TRUE,63,1101,0,0,0,0,30,"middle","right",TRUE,FALSE,FALSE,"right","right",NA,4045.20000000019
"61282ca83be28773ac7c421f",3,"Shorts",4,"Elbow",4,"Shoulders",3,FALSE,TRUE,FALSE,"middle","left",FALSE,FALSE,TRUE,FALSE,TRUE,"middle","[""left"",""right""]",NA,5676.79999999981,1802.29999999981,0,30,"right",20,TRUE,FALSE,FALSE,30,2303.39999999944,0,0,0,0,20,"middle","right",TRUE,FALSE,FALSE,"left","left",NA,4801.5
"5ee637a18976fc391312fe01",3,"Hamburger",2,"Ant",4,"Pie",3,TRUE,FALSE,FALSE,"middle","middle",FALSE,FALSE,TRUE,FALSE,TRUE,"right","[""left"",""middle""]",NA,3276.69999999925,1222.30000000075,0,20,"left",22,FALSE,TRUE,FALSE,100,1809.60000000149,0,0,0,0,43,"middle","left",TRUE,FALSE,FALSE,"middle","middle",NA,2032.20000000298
"5b9ca13a06114100010699b8",3,"Spoon",1,"Vacuum",2,"Hat",3,FALSE,TRUE,FALSE,"middle","right",TRUE,FALSE,FALSE,FALSE,TRUE,"middle","[""left"",""right""]",NA,2354.20000004768,1211.80000001192,0,20,"right",28,FALSE,FALSE,FALSE,17,1137,0,0,0,0,29,"middle","right",FALSE,FALSE,TRUE,"left","right",NA,4836.19999998808
"66954d8d88d42a3482f13df6",3,"Newspaper",4,"Gorilla",4,"Magazine",1,FALSE,TRUE,FALSE,"left","right",FALSE,FALSE,TRUE,FALSE,TRUE,"left","[""middle"",""right""]",NA,2807,688,0,17,"middle",16,FALSE,TRUE,FALSE,100,957,0,0,0,0,47,"left","middle",FALSE,TRUE,FALSE,"left","right",NA,1716
"6304db4577830d43f42d4d26",3,"Toothpaste",2,"Arm",3,"Tissue",3,FALSE,TRUE,FALSE,"middle","left",TRUE,FALSE,FALSE,FALSE,TRUE,"middle","[""left"",""right""]",NA,2230.80000000075,845.5,0,18,"left",23,FALSE,TRUE,FALSE,52,902.5,0,0,0,0,38,"middle","left",FALSE,TRUE,FALSE,"middle","left",NA,2700.30000000075
"67e7cdfb2d3c81d83ccef700",3,"Baby",1,"Coloring Book",5,"Fingers",5,FALSE,TRUE,FALSE,"middle","left",TRUE,FALSE,FALSE,FALSE,TRUE,"middle","[""left"",""right""]",NA,5496,1715,0,15,"left",35,FALSE,TRUE,FALSE,51,948,0,0,0,0,30,"middle","left",FALSE,TRUE,FALSE,"middle","left",NA,9308
"67701cb8e95b8934348de694",3,"Shovel",5,"Phone",5,"House",4,FALSE,TRUE,FALSE,"middle","left",FALSE,FALSE,TRUE,FALSE,TRUE,"middle","[""left"",""right""]",NA,1500.5,1651.80000001192,0,23,"right",21,FALSE,TRUE,FALSE,62,718.100000023842,0,0,0,0,32,"middle","right",FALSE,TRUE,FALSE,"middle","left",NA,2185
"65107641138d7e50e2a290d0",3,"Computer",1,"Hips",3,"Princess",3,FALSE,FALSE,TRUE,"middle","left",TRUE,FALSE,FALSE,FALSE,TRUE,"right","[""left"",""middle""]",NA,2924.39999997616,1447.30000007153,1,35,"left",9,FALSE,TRUE,FALSE,100,920.100000023842,0,0,0,0,30,"middle","left",FALSE,FALSE,TRUE,"middle","left",NA,2959.09999990463
"5be30116dd850e0001d2ba99",3,"Coloring Book",3,"Fish",5,"Glue",4,FALSE,TRUE,FALSE,"middle","left",TRUE,FALSE,FALSE,FALSE,TRUE,"middle","[""left"",""right""]",NA,2436.69999992847,601.799999952316,0,30,"left",16,FALSE,TRUE,FALSE,100,1472.80000007153,0,0,0,0,45,"middle","left",FALSE,TRUE,FALSE,"middle","left",NA,1897.59999990463
"5e38777a87243b095c67543b",3,"Cupcake",1,"Watch",4,"Cookies",2,FALSE,FALSE,TRUE,"left","right",FALSE,TRUE,FALSE,FALSE,TRUE,"middle","[""left"",""right""]",NA,3058.40000000596,2274.69999998808,0,8,"middle",10,TRUE,FALSE,FALSE,5,1013.5,0,0,0,0,6,"left","middle",TRUE,FALSE,FALSE,"right","right",NA,1956
"60325f7577ccb72319bf3c63",3,"Scissors",2,"Train",1,"Nose",5,FALSE,FALSE,TRUE,"right","middle",TRUE,FALSE,FALSE,FALSE,TRUE,"left","[""middle"",""right""]",NA,6876.60000002384,1064.39999997616,0,20,"middle",13,FALSE,TRUE,FALSE,57,1148.69999998808,0,0,0,0,35,"right","middle",FALSE,FALSE,TRUE,"right","middle",NA,1949.30000001192
"59d4c100078dbe0001951236",3,"Hat",3,"Meat",5,"Wagon",3,FALSE,FALSE,TRUE,"right","middle",FALSE,TRUE,FALSE,FALSE,TRUE,"left","[""middle"",""right""]",NA,3149.60000000009,1289.5,0,10,"left",8,FALSE,FALSE,TRUE,27,1091.79999999981,0,0,0,0,27,"right","left",FALSE,TRUE,FALSE,"left","middle",NA,8376.39999999991
"677406a14c6e104dba32e029",3,"Sandals",1,"Shoes",3,"Diaper",1,TRUE,FALSE,FALSE,"left","left",FALSE,FALSE,TRUE,FALSE,TRUE,"middle","[""left"",""right""]",NA,2379,2324,0,36,"right",19,FALSE,TRUE,FALSE,49,883,0,0,0,0,15,"left","right",TRUE,FALSE,FALSE,"left","left",NA,2382
"669faeb6d07d662c8f3de95b",3,"Sticker",3,"Princess",3,"Bucket",2,TRUE,FALSE,FALSE,"left","left",FALSE,FALSE,TRUE,FALSE,TRUE,"middle","[""left"",""right""]",NA,1930.09999999404,2110.70000001788,0,20,"right",25,FALSE,TRUE,FALSE,56,940.199999988079,0,0,0,0,10,"left","right",TRUE,FALSE,FALSE,"left","left",NA,1680.29999998212
"66465c850d9a3e177f2649fa",3,"Rope",5,"Sunglasses",2,"Monkey",4,FALSE,TRUE,FALSE,"left","middle",TRUE,FALSE,FALSE,FALSE,TRUE,"left","[""middle"",""right""]",NA,5348,742.300000071526,0,12,"middle",34,FALSE,TRUE,FALSE,99,1253.70000004768,0,0,0,0,45,"left","middle",FALSE,TRUE,FALSE,"left","middle",NA,3603.79999995232
"55daf7b369dbc30005b68ac9",3,"Juice",1,"Rice",2,"Puppets",4,TRUE,FALSE,FALSE,"right","right",FALSE,FALSE,TRUE,FALSE,TRUE,"middle","[""left"",""right""]",NA,5103.69999998808,767.699999988079,0,21,"left",15,FALSE,TRUE,FALSE,74,1194.30000001192,0,0,0,0,40,"right","left",TRUE,FALSE,FALSE,"right","right",NA,5181
"62e3f7b224ec70641fd86b7b",3,"Stamps",4,"Napkin",4,"Stove",3,FALSE,TRUE,FALSE,"left","middle",FALSE,FALSE,TRUE,FALSE,TRUE,"left","[""middle"",""right""]",NA,6065.70000000001,1288.29999999999,0,25,"right",15,FALSE,FALSE,FALSE,64,1815.09999999986,0,0,0,0,44,"left","right",TRUE,FALSE,FALSE,"middle","middle",NA,4659.39999999991
"5c4b987538878c0001c7883b",3,"Lunch",2,"Monkey",5,"Pig",2,FALSE,TRUE,FALSE,"middle","right",FALSE,FALSE,TRUE,FALSE,TRUE,"middle","[""left"",""right""]",NA,2815,902,0,35,"left",40,FALSE,FALSE,TRUE,53,1324,0,0,0,0,42,"middle","left",FALSE,FALSE,TRUE,"left","right",NA,3113.39999997616
"5ad8dbe2e34a050001b83eac",3,"Snow",3,"Battery",4,"Blanket",5,TRUE,FALSE,FALSE,"middle","middle",FALSE,TRUE,FALSE,FALSE,TRUE,"right","[""left"",""middle""]",NA,2609.79999995232,1004.79999995232,1,14,"right",15,FALSE,FALSE,TRUE,82,1413.70000004768,0,0,0,0,10,"middle","right",FALSE,TRUE,FALSE,"right","middle",NA,4465.90000009537
"661403131cecbe255b64ca6f",3,"Phone",1,"Chair",3,"Spaghetti",4,FALSE,FALSE,TRUE,"right","left",TRUE,FALSE,FALSE,FALSE,TRUE,"middle","[""left"",""right""]",NA,1432,3014.79999999981,0,38,"left",12,TRUE,TRUE,FALSE,87,965.200000000186,0,0,0,0,45,"right","left",FALSE,FALSE,TRUE,"right","left",NA,1567
"5ee0df4ff87654455ad1cb9a",3,"Juice",4,"Paper",4,"Meat",4,FALSE,TRUE,FALSE,"left","middle",FALSE,FALSE,TRUE,FALSE,TRUE,"left","[""middle"",""right""]",NA,3632,958,0,35,"right",28,FALSE,TRUE,FALSE,51,1068,0,0,0,0,39,"left","right",FALSE,TRUE,FALSE,"left","middle",NA,4650
"66b41d5d3c2a978a7aac2264",3,"Envelope",1,"Potatoes",5,"Box",2,FALSE,FALSE,TRUE,"left","middle",FALSE,TRUE,FALSE,FALSE,TRUE,"right","[""left"",""middle""]",NA,5161,1760,0,35,"right",25,FALSE,TRUE,FALSE,69,1307.19999999925,0,0,0,0,20,"left","right",FALSE,FALSE,TRUE,"left","middle",NA,3394.40000000037
"5d4b085ef76ba3001c7510de",3,"Snake",4,"Marker",1,"Clock",2,FALSE,TRUE,FALSE,"left","right",TRUE,FALSE,FALSE,FALSE,TRUE,"left","[""middle"",""right""]",NA,2197.60000000009,1144.89999999991,0,17,"right",17,FALSE,TRUE,FALSE,100,851.199999999953,0,0,0,0,45,"left","right",FALSE,TRUE,FALSE,"left","right",NA,2042.39999999991
"5d8e154af2858200171fdb95",3,"Puzzles",3,"Tractor",3,"Hammer",2,FALSE,FALSE,TRUE,"left","right",FALSE,TRUE,FALSE,FALSE,TRUE,"middle","[""left"",""right""]",NA,2231.19999998808,1496.19999998808,0,28,"middle",28,FALSE,TRUE,FALSE,15,694.100000023842,0,0,0,0,19,"left","middle",FALSE,FALSE,TRUE,"left","right",NA,2807.5
"63f82a4ff43ec144ca3622a8",3,"Rope",5,"Cookies",2,"Jacket",1,FALSE,TRUE,FALSE,"middle","right",FALSE,FALSE,TRUE,FALSE,TRUE,"middle","[""left"",""right""]",NA,4669.70000004768,2743.30000001192,1,20,"left",10,FALSE,FALSE,TRUE,8,736.399999976158,0,0,0,0,31,"middle","left",FALSE,FALSE,TRUE,"left","right",NA,5183.39999997616
"66fceda149718a86f36761b4",3,"TV",5,"Soap",2,"Marker",2,FALSE,FALSE,TRUE,"right","left",FALSE,TRUE,FALSE,FALSE,TRUE,"middle","[""left"",""right""]",NA,2500,821.700000001118,0,11,"middle",11,FALSE,FALSE,FALSE,19,1410.90000000037,0,0,0,0,21,"right","middle",TRUE,FALSE,FALSE,"left","left",NA,3522.89999999851
"59f0eda5e75b450001a699a7",3,"Sweater",3,"Sun",5,"Pear",5,TRUE,FALSE,FALSE,"right","right",FALSE,FALSE,TRUE,TRUE,TRUE,"middle","[""left"",""right""]",NA,1593.40000009537,1016.7000002861,0,14,"left",14,FALSE,TRUE,FALSE,100,1266.5,0,0,0,0,30,"right","left",TRUE,FALSE,FALSE,"right","right",NA,1735.69999980927
"5f53b958c8cfea6e2104c5b6",3,"Wing",1,"Ankle",5,"Doughnut",5,FALSE,FALSE,TRUE,"right","middle",FALSE,TRUE,FALSE,FALSE,TRUE,"left","[""middle"",""right""]",NA,2838.30000019073,841.200000286102,0,27,"left",40,FALSE,TRUE,FALSE,78,1260.69999980927,0,0,0,0,28,"right","left",FALSE,FALSE,TRUE,"right","middle",NA,2267
"65dca6bb88611ac902cc60fb",3,"Fence",2,"Rabbit",4,"Fork",4,FALSE,FALSE,TRUE,"right","middle",FALSE,TRUE,FALSE,FALSE,TRUE,"left","[""middle"",""right""]",NA,4072,2079.5,1,27,"left",9,TRUE,TRUE,FALSE,80,1019.89999997616,0,0,0,0,31,"right","left",FALSE,FALSE,TRUE,"right","middle",NA,4380.69999992847
"60fc2ec58ad0da367daee3c1",3,"Bandaid",3,"Glue",2,"Cereal",4,TRUE,FALSE,FALSE,"right","right",FALSE,TRUE,FALSE,FALSE,TRUE,"middle","[""left"",""right""]",NA,1948.69999998808,746.100000023842,0,12,"middle",38,FALSE,FALSE,TRUE,45,810.300000011921,0,0,0,0,33,"right","middle",FALSE,TRUE,FALSE,"middle","right",NA,3100.90000003576
"60a3ac51b06fa9eb29a105bc",3,"Straw",4,"Cheese",3,"Feet",2,FALSE,FALSE,TRUE,"middle","right",FALSE,TRUE,FALSE,FALSE,TRUE,"left","[""middle"",""right""]",NA,2385,667,1,8,"left",19,FALSE,TRUE,FALSE,86,1012,0,0,0,0,38,"middle","left",FALSE,FALSE,TRUE,"middle","right",NA,1824
"5e3068330082f106875fb3f2",3,"Cookies",1,"Microphone",5,"Box",2,FALSE,FALSE,TRUE,"left","right",TRUE,FALSE,FALSE,FALSE,TRUE,"middle","[""left"",""right""]",NA,2711.10000002384,525.600000023842,0,20,"right",29,FALSE,TRUE,FALSE,59,1060.5,0,0,0,0,16,"left","right",FALSE,FALSE,TRUE,"left","right",NA,1836.80000001192
"660de2426df2c14f27678f6b",3,"Shorts",1,"Vacuum",2,"Squirrel",3,TRUE,FALSE,FALSE,"middle","middle",FALSE,TRUE,FALSE,FALSE,TRUE,"right","[""left"",""middle""]",NA,1749.30000007153,628.199999928474,1,20,"right",19,FALSE,FALSE,TRUE,75,532,0,0,0,0,22,"middle","right",FALSE,TRUE,FALSE,"right","middle",NA,1472.60000002384
"5eea9a9ea8d6d71ba912a73e",3,"Corn",3,"Camera",1,"Dinosaur",4,FALSE,FALSE,TRUE,"right","middle",TRUE,FALSE,FALSE,FALSE,TRUE,"left","[""middle"",""right""]",NA,2392.39999997616,1213.30000001192,0,37,"middle",11,FALSE,TRUE,FALSE,75,914.800000011921,0,0,0,0,44,"right","middle",FALSE,FALSE,TRUE,"right","middle",NA,2919.19999998808
"5eced9328405902eef967571",3,"Nose",1,"Soda",5,"Phone",1,FALSE,FALSE,TRUE,"middle","left",TRUE,FALSE,FALSE,FALSE,TRUE,"right","[""left"",""middle""]",NA,1947.90000000037,1453.30000000075,0,30,"left",15,FALSE,TRUE,FALSE,65,1013.79999999981,0,0,0,0,35,"middle","left",FALSE,FALSE,TRUE,"middle","left",NA,2710.09999999963
"5eec48a2a0a86044492efa67",3,"Truck",2,"Wing",1,"Pool",2,TRUE,FALSE,FALSE,"left","left",FALSE,TRUE,FALSE,FALSE,TRUE,"right","[""left"",""middle""]",NA,2895.59999996424,685.399999976158,0,21,"right",20,FALSE,FALSE,TRUE,33,1246.69999998808,0,0,0,0,45,"left","right",FALSE,TRUE,FALSE,"right","left",NA,2720.69999998808
"5c726173c66879000152e516",3,"Stick",3,"Princess",1,"Hoop",1,FALSE,TRUE,FALSE,"middle","left",FALSE,FALSE,TRUE,FALSE,TRUE,"middle","[""left"",""right""]",NA,2968.69999999995,850.699999999953,0,20,"right",30,FALSE,FALSE,TRUE,79,965.300000000047,0,0,0,0,20,"middle","right",FALSE,FALSE,TRUE,"right","left",NA,1819.5
"5c5b55ce32810e0001c3456b",3,"Hanger",2,"Sand",3,"Lizard",5,TRUE,FALSE,FALSE,"left","left",FALSE,FALSE,TRUE,FALSE,TRUE,"right","[""left"",""middle""]",NA,2263,918,0,34,"middle",15,FALSE,FALSE,TRUE,20,1024,0,0,0,0,19,"left","middle",FALSE,FALSE,TRUE,"middle","left",NA,4595
"5f4412624052727181839e3a",3,"Drum",5,"Pencil",5,"Rain",2,FALSE,TRUE,FALSE,"middle","left",FALSE,FALSE,TRUE,FALSE,TRUE,"middle","[""left"",""right""]",NA,2331,957,0,22,"right",12,FALSE,TRUE,FALSE,81,546,0,1,0,0,40,"middle","right",FALSE,TRUE,FALSE,"middle","left",NA,1613
"662939c49821886e0246c494",3,"Fork",4,"Tractor",1,"Scissors",1,TRUE,FALSE,FALSE,"left","left",FALSE,TRUE,FALSE,FALSE,TRUE,"middle","[""left"",""right""]",NA,3576.60000002384,1058.19999998808,0,35,"middle",30,FALSE,TRUE,FALSE,17,955.300000011921,0,0,0,0,12,"left","middle",TRUE,FALSE,FALSE,"left","left",NA,3754.60000002384
"5d542c3a5af5900019bc80c4",3,"Bear",2,"Spoon",2,"Money",3,TRUE,FALSE,FALSE,"right","right",FALSE,FALSE,TRUE,FALSE,TRUE,"left","[""middle"",""right""]",NA,2401.79999995232,1312.69999992847,0,15,"middle",17,FALSE,TRUE,FALSE,100,1151.29999995232,0,0,0,0,48,"right","middle",TRUE,FALSE,FALSE,"right","right",NA,1728.69999992847
"5ced0da70afd6e0001a9f211",3,"Hoop",5,"Stairs",4,"Computer",4,TRUE,FALSE,FALSE,"middle","middle",FALSE,TRUE,FALSE,FALSE,TRUE,"right","[""left"",""middle""]",NA,2150.09999999404,807.5,0,5,"right",45,FALSE,FALSE,TRUE,71,818.09999999404,0,0,0,0,41,"middle","right",FALSE,TRUE,FALSE,"right","middle",NA,1911.5
"6475208cd6045ed7c2e281ab",3,"Soap",5,"Mountain",2,"Pear",4,TRUE,FALSE,FALSE,"right","right",FALSE,TRUE,FALSE,TRUE,TRUE,"left","[""middle"",""right""]",NA,3744.39999997616,2360.60000002384,0,27,"left",23,FALSE,TRUE,FALSE,100,2017.90000003576,0,0,0,0,40,"right","left",TRUE,FALSE,FALSE,"right","right",NA,3324.90000003576
"570ff6c4736f6a00095576c7",3,"Mouth",5,"Elephant",3,"Suitcase",4,TRUE,FALSE,FALSE,"middle","middle",FALSE,FALSE,TRUE,FALSE,TRUE,"right","[""left"",""middle""]",NA,1229.30000007153,994.5,0,20,"left",25,FALSE,TRUE,FALSE,98,433.100000023842,0,0,0,0,10,"middle","left",TRUE,FALSE,FALSE,"middle","middle",NA,1790.5
"5b4ec32e995d4e00010944ce",3,"Sofa",5,"Queen",3,"Bead",5,FALSE,FALSE,TRUE,"right","middle",TRUE,FALSE,FALSE,FALSE,TRUE,"left","[""middle"",""right""]",NA,3303.5,581.5,0,17,"middle",15,FALSE,TRUE,FALSE,75,1766.39999997616,0,0,0,0,36,"right","middle",FALSE,FALSE,TRUE,"right","middle",NA,2951.89999997616
"57bafa6cc308ca00014527c2",3,"Mailbox",5,"Necklace",4,"Refrigerator",2,FALSE,TRUE,FALSE,"middle","right",FALSE,FALSE,TRUE,FALSE,TRUE,"middle","[""left"",""right""]",NA,4525.19999999553,1352.29999999702,0,10,"left",15,FALSE,TRUE,FALSE,55,2026.60000000149,0,0,0,0,45,"middle","left",FALSE,TRUE,FALSE,"middle","right",NA,4398.30000000447
"66956649d7179281d46fa6f2",3,"Peas",4,"Hat",4,"Glove",1,FALSE,TRUE,FALSE,"right","middle",FALSE,FALSE,TRUE,FALSE,TRUE,"right","[""left"",""middle""]",NA,7030,1219.90000000596,0,33,"left",14,FALSE,TRUE,FALSE,28,1704.70000000298,0,0,0,0,18,"right","left",FALSE,TRUE,FALSE,"right","middle",NA,5342.20000000298
"63e5a6690eeedc20da056717",3,"Meat",2,"Belt",5,"Rope",3,TRUE,FALSE,FALSE,"right","right",FALSE,FALSE,TRUE,FALSE,TRUE,"middle","[""left"",""right""]",NA,2959.89999997616,1168.09999999404,0,18,"left",19,FALSE,TRUE,FALSE,22,1683.40000000596,0,0,0,0,32,"right","left",TRUE,FALSE,FALSE,"right","right",NA,5005.89999997616
"5d352f8bb02857001963539a",3,"Video Tape",4,"Envelope",1,"Popcorn",4,FALSE,FALSE,TRUE,"left","middle",FALSE,TRUE,FALSE,FALSE,TRUE,"right","[""left"",""middle""]",NA,2013.90000009537,1870.59999990463,0,16,"right",10,FALSE,TRUE,FALSE,100,1099.30000019073,0,0,0,0,48,"left","right",FALSE,FALSE,TRUE,"left","middle",NA,2297.19999980927
"5cf66ed8912f0b0017c50b52",3,"Bug",1,"Ring",5,"Rain",4,FALSE,TRUE,FALSE,"middle","left",TRUE,FALSE,FALSE,FALSE,TRUE,"middle","[""left"",""right""]",NA,1888.10000002384,1512.59999999404,0,12,"left",27,FALSE,TRUE,FALSE,72,800,0,0,0,0,46,"middle","left",FALSE,TRUE,FALSE,"middle","left",NA,1790.80000001192
"5cfb459229a6c2001764e10d",3,"Shoulders",2,"Bottle",3,"Crackers",4,FALSE,FALSE,TRUE,"right","left",TRUE,FALSE,FALSE,FALSE,TRUE,"middle","[""left"",""right""]",NA,2248,796,0,24,"left",26,FALSE,TRUE,FALSE,74,746,0,0,0,0,40,"right","left",FALSE,FALSE,TRUE,"right","left",NA,1311
"5b79dfb9db11320001c3d3f4",3,"Teeth",2,"Chair",2,"Bean",2,FALSE,FALSE,TRUE,"right","left",TRUE,FALSE,FALSE,FALSE,TRUE,"middle","[""left"",""right""]",NA,2647.80000001192,583.90000000596,1,28,"left",15,FALSE,TRUE,FALSE,100,848.800000011921,0,1,0,0,25,"right","left",FALSE,FALSE,TRUE,"right","left",NA,1842
"654e42ed750e4e81219b2c0e",3,"Boat",4,"Fingers",2,"Ice Cream",5,TRUE,FALSE,FALSE,"left","left",FALSE,FALSE,TRUE,FALSE,TRUE,"right","[""left"",""middle""]",NA,2308.69999980927,763.700000286102,0,35,"middle",26,FALSE,FALSE,FALSE,79,1802.5,0,0,0,0,34,"left","middle",FALSE,TRUE,FALSE,"right","left",NA,3142.2000002861
"63d7b30ddc8ceb61c74fe85b",3,"Bee",3,"Curtain",3,"Pan",2,FALSE,FALSE,TRUE,"middle","left",FALSE,TRUE,FALSE,FALSE,TRUE,"right","[""left"",""middle""]",NA,3671,1374.29999999702,0,39,"right",15,FALSE,FALSE,FALSE,37,2666.09999999776,0,0,0,0,32,"middle","right",TRUE,FALSE,FALSE,"left","left",NA,3481.29999999702
"65cb708afe5755feaeec417f",3,"Dog",3,"Rabbit",2,"Bubbles",2,FALSE,FALSE,TRUE,"right","middle",FALSE,TRUE,FALSE,FALSE,TRUE,"left","[""middle"",""right""]",NA,2101.19999992847,640.899999976158,1,15,"left",10,FALSE,FALSE,TRUE,100,601.299999952316,0,0,0,0,44,"right","left",FALSE,TRUE,FALSE,"left","middle",NA,1768.70000004768
"6155e95c0808b015514b34e0",3,"Boots",3,"Knee",4,"Bike",3,TRUE,FALSE,FALSE,"right","right",FALSE,FALSE,TRUE,FALSE,TRUE,"left","[""middle"",""right""]",NA,1361.60000002384,655.900000035763,1,30,"middle",27,FALSE,TRUE,FALSE,46,890.699999988079,0,0,0,0,16,"right","middle",TRUE,FALSE,FALSE,"right","right",NA,2086.5
"5bd2d397f92a480001c64dcb",3,"Movie",1,"Duck",1,"Magazine",1,FALSE,TRUE,FALSE,"right","middle",FALSE,FALSE,TRUE,FALSE,TRUE,"right","[""left"",""middle""]",NA,2166,498,1,17,"left",10,FALSE,TRUE,FALSE,46,499,0,0,0,0,15,"right","left",FALSE,TRUE,FALSE,"right","middle",NA,1620
"677a8e5affbe5673b3a79e6b",3,"Elbow",2,"Pen",3,"Dolls",4,FALSE,FALSE,TRUE,"right","middle",FALSE,TRUE,FALSE,FALSE,TRUE,"left","[""middle"",""right""]",NA,3296,3791,0,30,"left",19,TRUE,FALSE,TRUE,33,1310,0,0,0,0,15,"right","left",FALSE,TRUE,FALSE,"left","middle",NA,6189.00000000023
"66b8e8f12fa9160e4ca9f25b",3,"Rainbow",2,"Grass",5,"Belt",5,FALSE,FALSE,TRUE,"middle","left",FALSE,TRUE,FALSE,FALSE,TRUE,"right","[""left"",""middle""]",NA,5444.69999999553,1156,0,25,"right",25,TRUE,TRUE,FALSE,83,969,0,0,0,0,45,"middle","right",FALSE,FALSE,TRUE,"middle","left",NA,2859.70000000298
"616ef680ab8ca318a227f5ec",3,"Goal",5,"Computer",5,"Comb",5,TRUE,FALSE,FALSE,"right","right",FALSE,TRUE,FALSE,FALSE,TRUE,"middle","[""left"",""right""]",NA,2950.5,1440.89999997616,0,14,"middle",36,FALSE,TRUE,FALSE,31,1603.89999997616,0,0,0,0,22,"right","middle",TRUE,FALSE,FALSE,"right","right",NA,5767.79999995232
"676f0d51832c4a60f2d8cb96",3,"Yogurt",5,"Feet",2,"Scooter",5,FALSE,FALSE,TRUE,"left","right",TRUE,FALSE,FALSE,FALSE,TRUE,"middle","[""left"",""right""]",NA,1913.30000000075,1218.10000000149,1,30,"right",15,FALSE,TRUE,FALSE,85,950.199999999255,0,0,0,0,38,"left","right",FALSE,FALSE,TRUE,"left","right",NA,1311.30000000075
"67422eccacb7146efb2e7af0",3,"Doughnut",2,"Fries",3,"Cherry",4,TRUE,FALSE,FALSE,"right","right",FALSE,TRUE,FALSE,TRUE,TRUE,"middle","[""left"",""right""]",NA,2624.39999997616,1597.39999997616,1,26,"middle",24,FALSE,TRUE,FALSE,98,1021.40000009537,0,0,0,0,46,"right","middle",TRUE,FALSE,FALSE,"right","right",NA,2077.5
"6658c56f3d9230d99c3e6752",3,"Pudding",3,"Lunch",4,"Snake",2,FALSE,FALSE,TRUE,"left","right",TRUE,FALSE,FALSE,FALSE,TRUE,"middle","[""left"",""right""]",NA,2802.69999999925,1590.80000000075,0,17,"right",18,FALSE,FALSE,FALSE,50,2208.60000000149,0,0,0,0,30,"left","right",FALSE,TRUE,FALSE,"middle","right",NA,2793.59999999776
"654a86d08714f739c9fcea21",3,"Vacuum",2,"Dog",5,"Flower",2,FALSE,FALSE,TRUE,"middle","right",FALSE,TRUE,FALSE,FALSE,TRUE,"left","[""middle"",""right""]",NA,3378.10000000149,1276.59999999963,0,33,"left",10,TRUE,TRUE,FALSE,75,1978.69999999925,0,0,0,0,15,"middle","left",FALSE,FALSE,TRUE,"middle","right",NA,4144.19999999925
"5ec3eabec8f93307a60c5d1b",3,"Stairs",2,"Envelope",4,"Necklace",1,FALSE,TRUE,FALSE,"middle","right",FALSE,FALSE,TRUE,FALSE,TRUE,"middle","[""left"",""right""]",NA,2111,745,0,20,"left",33,FALSE,FALSE,TRUE,13,618,0,0,0,0,21,"middle","left",FALSE,FALSE,TRUE,"left","right",NA,2335
"6786d7955dfbf40eae7ed3d9",3,"TV",2,"Pizza",1,"Bird",5,TRUE,FALSE,FALSE,"right","right",FALSE,FALSE,TRUE,FALSE,TRUE,"middle","[""left"",""right""]",NA,2133.10000002384,812.600000023842,1,39,"left",30,FALSE,TRUE,FALSE,100,817.800000071526,0,0,0,0,46,"right","left",TRUE,FALSE,FALSE,"right","right",NA,1695
"659ea43fea7c0cc45bbe771f",3,"Nest",3,"Turtle",1,"Zipper",4,FALSE,TRUE,FALSE,"middle","right",TRUE,FALSE,FALSE,FALSE,TRUE,"middle","[""left"",""right""]",NA,1427.40000009537,831.900000095367,0,33,"right",19,FALSE,TRUE,FALSE,42,825.200000047684,0,0,0,0,38,"middle","right",FALSE,TRUE,FALSE,"middle","right",NA,2833.30000019073
"682b8071ffc2da7edd49f10c",3,"Bubbles",1,"Stars",4,"Stool",2,FALSE,FALSE,TRUE,"middle","left",FALSE,TRUE,FALSE,FALSE,TRUE,"right","[""left"",""middle""]",NA,2911.70000000001,1234.40000000002,0,25,"right",28,TRUE,TRUE,FALSE,56,1046.10000000009,0,0,0,0,26,"middle","right",FALSE,FALSE,TRUE,"middle","left",NA,4054.79999999981
"5c2ab2de9136140001b90737",3,"Snow",5,"Train",4,"Rock",3,FALSE,FALSE,TRUE,"right","left",TRUE,FALSE,FALSE,FALSE,TRUE,"middle","[""left"",""right""]",NA,3054.5,1141.79999999702,0,21,"left",13,FALSE,FALSE,TRUE,39,1205,0,0,0,0,41,"right","left",TRUE,FALSE,FALSE,"left","left",NA,4878.69999999925
"5e7fa0e918b10804bb87eb63",3,"Brush",3,"Horse",2,"Pants",5,FALSE,TRUE,FALSE,"left","middle",FALSE,FALSE,TRUE,FALSE,TRUE,"left","[""middle"",""right""]",NA,1356.30000001192,1598,0,38,"right",13,FALSE,TRUE,FALSE,89,992.099999964237,0,0,0,0,39,"left","right",FALSE,TRUE,FALSE,"left","middle",NA,2393.40000003576
"59014ee029f42300013cc5b7",3,"Nest",2,"Fly",4,"Balloons",1,TRUE,FALSE,FALSE,"left","left",FALSE,TRUE,FALSE,FALSE,TRUE,"right","[""left"",""middle""]",NA,2550.30000019073,1377,0,22,"right",32,FALSE,TRUE,FALSE,12,1220,0,0,0,0,41,"left","right",TRUE,FALSE,FALSE,"left","left",NA,4854.90000009537
"633485c40e46cf7e9a2f2ca1",3,"Giraffe",3,"Queen",5,"Watch",5,TRUE,FALSE,FALSE,"right","right",FALSE,FALSE,TRUE,FALSE,TRUE,"left","[""middle"",""right""]",NA,4219.80000019073,835.200000047684,0,23,"middle",15,FALSE,TRUE,FALSE,61,1434.89999985695,0,1,0,0,31,"right","middle",TRUE,FALSE,FALSE,"right","right",NA,3403.90000009537
"5827634ea80bf4000199994b",3,"Bird",1,"Toilet",4,"Bucket",4,TRUE,FALSE,FALSE,"right","right",FALSE,FALSE,TRUE,FALSE,TRUE,"left","[""middle"",""right""]",NA,2560.80000007153,1030.29999995232,0,40,"middle",10,FALSE,TRUE,FALSE,69,1770.29999995232,0,0,0,0,20,"right","middle",TRUE,FALSE,FALSE,"right","right",NA,3158.89999997616
"642ef01a04c9f327767cde23",3,"Tissue",2,"Sink",4,"Stool",2,FALSE,FALSE,TRUE,"left","middle",FALSE,TRUE,FALSE,FALSE,TRUE,"right","[""left"",""middle""]",NA,3749.30000001192,1134.20000004768,0,11,"right",8,FALSE,TRUE,FALSE,86,1668.5,0,0,0,0,37,"left","right",FALSE,FALSE,TRUE,"left","middle",NA,3154.5
"5f3d42de03555c0832cbef73",3,"Crackers",3,"Sunglasses",2,"Tongue",4,FALSE,TRUE,FALSE,"right","middle",FALSE,FALSE,TRUE,FALSE,TRUE,"right","[""left"",""middle""]",NA,2089.79999999981,594.799999999814,0,16,"left",34,FALSE,TRUE,FALSE,100,1256.19999999972,0,0,0,0,46,"right","left",FALSE,TRUE,FALSE,"right","middle",NA,1789.30000000028
"63ed50df25d0ea08696b393f",3,"Battery",4,"Slide",4,"Hips",4,FALSE,TRUE,FALSE,"left","right",FALSE,FALSE,TRUE,FALSE,TRUE,"left","[""middle"",""right""]",NA,1973.5,1062.69999998808,0,38,"middle",9,FALSE,TRUE,FALSE,49,1162,0,0,0,0,36,"left","middle",FALSE,TRUE,FALSE,"left","right",NA,2278.59999996424
"67d0647157996203f3da1743",3,"Straw",4,"Hammer",1,"Helicopter",1,FALSE,TRUE,FALSE,"left","right",FALSE,FALSE,TRUE,FALSE,TRUE,"left","[""middle"",""right""]",NA,2670.39999997616,1232.29999995232,1,17,"middle",17,FALSE,TRUE,FALSE,97,971.5,0,0,0,0,43,"left","middle",FALSE,TRUE,FALSE,"left","right",NA,1504.60000002384
"59a734ce0c87a000017481ed",3,"Bananas",5,"Hamburger",3,"Waffle",3,TRUE,FALSE,FALSE,"left","left",FALSE,TRUE,FALSE,TRUE,TRUE,"right","[""left"",""middle""]",NA,1694.10000014305,1287.5,0,23,"right",13,FALSE,TRUE,FALSE,100,700.599999904633,0,0,0,0,21,"left","right",TRUE,FALSE,FALSE,"left","left",NA,1571.10000014305
"67665f7b0329bd3e30515ad2",3,"Soda",2,"Circle",4,"Sun",2,FALSE,TRUE,FALSE,"right","middle",TRUE,FALSE,FALSE,FALSE,TRUE,"right","[""left"",""middle""]",NA,4208.19999998808,1073.09999996424,0,28,"middle",29,TRUE,FALSE,TRUE,35,1310.40000003576,0,0,0,0,39,"right","middle",TRUE,FALSE,FALSE,"middle","middle",NA,5115.10000002384
"66bb63dab2b110041a61af00",3,"Bubbles",5,"Soap",1,"Shoulders",1,TRUE,FALSE,FALSE,"left","left",FALSE,FALSE,TRUE,FALSE,TRUE,"right","[""left"",""middle""]",NA,1830.90000000002,730.599999999977,0,26,"middle",29,FALSE,TRUE,FALSE,74,499.799999999814,0,0,0,0,20,"left","middle",TRUE,FALSE,FALSE,"left","left",NA,1842.69999999995
"6290fea2c6e6821bf8d3c606",3,"Brush",3,"Bell",3,"Belt",5,TRUE,FALSE,FALSE,"right","right",FALSE,FALSE,TRUE,FALSE,TRUE,"left","[""middle"",""right""]",NA,1551.40000003576,675.299999952316,0,18,"middle",18,FALSE,TRUE,FALSE,97,641.399999976158,0,0,0,0,37,"right","middle",TRUE,FALSE,FALSE,"right","right",NA,1384.5
"5dcdb60be64aaa07c14065cc",3,"Eyes",4,"Camera",3,"Tiger",4,FALSE,FALSE,TRUE,"right","left",FALSE,TRUE,FALSE,FALSE,TRUE,"middle","[""left"",""right""]",NA,2583.90000000002,1146,0,33,"middle",16,TRUE,TRUE,FALSE,62,1226.39999999991,0,0,0,0,36,"right","middle",FALSE,FALSE,TRUE,"right","left",NA,3063.89999999991
"588938e3b08cc30001b77771",3,"Moon",2,"Slide",3,"Triangle",5,TRUE,FALSE,FALSE,"middle","middle",FALSE,TRUE,FALSE,FALSE,TRUE,"left","[""middle"",""right""]",NA,4645.59999999404,442.09999999404,0,9,"left",11,FALSE,TRUE,FALSE,18,705.200000017881,0,0,0,0,4,"middle","left",TRUE,FALSE,FALSE,"middle","middle",NA,5625
"5f82efa422d3c740b3e41b30",3,"Wheel",2,"Kangaroo",4,"Airplane",2,FALSE,FALSE,TRUE,"left","right",TRUE,FALSE,FALSE,FALSE,TRUE,"middle","[""left"",""right""]",NA,2626.40000003576,2588.80000001192,0,15,"right",20,FALSE,FALSE,FALSE,26,815.699999988079,0,0,0,0,30,"left","right",FALSE,TRUE,FALSE,"middle","right",NA,2308.80000001192
"64136f616f4202871d6bb12e",3,"Stars",1,"Money",3,"Shampoo",4,TRUE,FALSE,FALSE,"left","left",FALSE,TRUE,FALSE,FALSE,TRUE,"right","[""left"",""middle""]",NA,3146,1100.00000000001,0,18,"right",20,FALSE,TRUE,FALSE,71,913,0,0,0,0,21,"left","right",TRUE,FALSE,FALSE,"left","left",NA,2653
"5f1833a16e55c522eeaf4dbe",3,"Belt",5,"Slide",1,"Bell",5,FALSE,FALSE,TRUE,"middle","right",TRUE,FALSE,FALSE,FALSE,TRUE,"left","[""middle"",""right""]",NA,2445.29999995232,1215.69999998808,0,20,"right",25,FALSE,FALSE,TRUE,58,1253.30000001192,0,0,0,0,25,"middle","right",TRUE,FALSE,FALSE,"right","right",NA,2810.59999996424
"56aa2ab9402d62000c7096f2",3,"Bridge",3,"Triangle",2,"Video Tape",2,FALSE,TRUE,FALSE,"left","middle",TRUE,FALSE,FALSE,FALSE,TRUE,"left","[""middle"",""right""]",NA,3606.30000019073,963.5,0,31,"middle",21,FALSE,TRUE,FALSE,100,1288.5,0,0,0,0,45,"left","middle",FALSE,TRUE,FALSE,"left","middle",NA,1884.7000002861
"66cc906a1d6bea34dd2e57b0",3,"Keys",5,"Chalk",2,"Tractor",1,TRUE,FALSE,FALSE,"middle","middle",FALSE,FALSE,TRUE,FALSE,TRUE,"right","[""left"",""middle""]",NA,6075.80000000075,983.5,0,38,"left",36,TRUE,TRUE,FALSE,92,933,1,0,0,0,40,"middle","left",TRUE,FALSE,FALSE,"middle","middle",NA,1084.59999999963
"6720fbc84253185973cbe564",4,"Movie",2,"Feet",5,"Shovel",5,TRUE,FALSE,FALSE,"middle","middle",FALSE,FALSE,TRUE,FALSE,TRUE,"right","[""left"",""middle""]",NA,3249.80000001192,492.699999988079,0,20,"left",13,TRUE,TRUE,FALSE,22,1130.19999998808,0,0,0,0,30,"middle","left",TRUE,FALSE,FALSE,"middle","middle",NA,2371.89999997616
"56e967b74c71f00005d78743",4,"Flashlight",1,"Net",1,"Yo-yo",4,FALSE,FALSE,TRUE,"right","middle",TRUE,FALSE,FALSE,FALSE,TRUE,"left","[""middle"",""right""]",NA,2293.29999999702,3130.60000000894,1,33,"middle",17,FALSE,TRUE,FALSE,13,1002.29999999702,0,0,0,0,35,"right","middle",FALSE,FALSE,TRUE,"right","middle",NA,2750.79999999702
"5cf6ee10d5478e0001da72bd",4,"Taco",3,"Rabbit",5,"Truck",3,TRUE,FALSE,FALSE,"left","left",FALSE,FALSE,TRUE,FALSE,TRUE,"right","[""left"",""middle""]",NA,2024.40000000596,829.59999999404,1,20,"middle",13,FALSE,TRUE,FALSE,98,891.199999988079,0,0,0,0,26,"left","middle",TRUE,FALSE,FALSE,"left","left",NA,1245.69999998808
"6120e3a34f6ad742437d6c95",4,"Scissors",3,"Lion",5,"Envelope",3,FALSE,TRUE,FALSE,"middle","right",TRUE,FALSE,FALSE,FALSE,TRUE,"middle","[""left"",""right""]",NA,2672.59999996424,687,0,18,"right",20,FALSE,TRUE,FALSE,98,724.600000023842,0,0,0,0,42,"middle","right",FALSE,TRUE,FALSE,"middle","right",NA,1736.10000002384
"594016e06ee2c800016c09d1",4,"Elbow",1,"Pig",5,"Cup",4,FALSE,FALSE,TRUE,"right","middle",FALSE,TRUE,FALSE,FALSE,TRUE,"left","[""middle"",""right""]",NA,1679,779.700000000186,1,31,"left",16,FALSE,FALSE,FALSE,36,1759.20000000019,0,0,0,0,14,"right","left",TRUE,FALSE,FALSE,"middle","middle",NA,2119.79999999981
"5791dae225cb71000128ad5b",4,"Hat",1,"Toy",5,"Stars",2,TRUE,FALSE,FALSE,"middle","middle",FALSE,TRUE,FALSE,FALSE,TRUE,"left","[""middle"",""right""]",NA,1836.40000009537,994.600000143051,0,18,"left",16,FALSE,TRUE,FALSE,86,867.900000095367,0,0,0,0,29,"middle","left",TRUE,FALSE,FALSE,"middle","middle",NA,1735.29999995232
"67696d49d386c9789b03b1da",4,"Can",3,"Purse",4,"Elbow",4,FALSE,FALSE,TRUE,"left","middle",FALSE,TRUE,FALSE,FALSE,TRUE,"right","[""left"",""middle""]",NA,3773.5,906.89999999851,0,32,"right",18,FALSE,FALSE,FALSE,52,1303.20000000298,0,0,0,0,20,"left","right",TRUE,FALSE,FALSE,"middle","middle",NA,2334.90000000596
"67db4c889794c3be29370b1d",4,"Mountain",2,"Dinosaur",2,"Microphone",1,FALSE,FALSE,TRUE,"left","middle",FALSE,TRUE,FALSE,FALSE,TRUE,"right","[""left"",""middle""]",NA,5952.10000002384,1321,0,28,"right",17,FALSE,TRUE,FALSE,100,1640.80000001192,0,0,0,0,48,"left","right",FALSE,FALSE,TRUE,"left","middle",NA,2651
"60cf0d251a90eb823bc9b740",4,"Pirate",4,"Strawberries",5,"Slide",4,TRUE,FALSE,FALSE,"middle","middle",FALSE,TRUE,FALSE,TRUE,TRUE,"right","[""left"",""middle""]",NA,1638.40000003576,534.800000011921,0,16,"right",20,FALSE,TRUE,FALSE,100,699.800000011921,0,0,0,0,48,"middle","right",TRUE,FALSE,FALSE,"middle","middle",NA,1371.39999997616
"63469662d9e84d379f52c166",4,"Grass",5,"Sticker",4,"Crayons",5,TRUE,FALSE,FALSE,"right","right",FALSE,TRUE,FALSE,FALSE,TRUE,"middle","[""left"",""right""]",NA,4276.89999999944,1616.20000000019,0,20,"middle",20,FALSE,TRUE,FALSE,67,1893.70000000019,0,1,0,0,30,"right","middle",TRUE,FALSE,FALSE,"right","right",NA,5485.79999999981
"5cf6e4aae289a80019b6e032",4,"Zebra",4,"Sandwich",2,"Bowl",3,FALSE,FALSE,TRUE,"left","middle",FALSE,TRUE,FALSE,FALSE,TRUE,"right","[""left"",""middle""]",NA,1426.10000000009,1348.79999999981,0,30,"right",18,FALSE,TRUE,FALSE,85,1277.70000000019,0,0,0,0,28,"left","right",FALSE,FALSE,TRUE,"left","middle",NA,3372.80000000028
"5bb609520cb04c00014efb8a",4,"Spoon",5,"Toy",1,"Tree",1,FALSE,FALSE,TRUE,"left","right",TRUE,FALSE,FALSE,FALSE,TRUE,"middle","[""left"",""right""]",NA,1564.89999999991,614.399999999907,0,8,"right",35,FALSE,TRUE,FALSE,89,600.200000000186,0,0,0,0,30,"left","right",FALSE,FALSE,TRUE,"left","right",NA,1061.19999999972
"61282ca83be28773ac7c421f",4,"Bubbles",1,"Pudding",2,"Hot Dog",4,TRUE,FALSE,FALSE,"right","right",FALSE,FALSE,TRUE,FALSE,TRUE,"middle","[""left"",""right""]",NA,3839.09999999963,2002.10000000056,0,30,"left",20,TRUE,TRUE,FALSE,30,3203.79999999981,0,0,0,0,20,"right","left",TRUE,FALSE,FALSE,"right","right",NA,9446.89999999944
"5ee637a18976fc391312fe01",4,"Mirror",5,"Swing",4,"Truck",4,TRUE,FALSE,FALSE,"left","left",FALSE,FALSE,TRUE,FALSE,TRUE,"right","[""left"",""middle""]",NA,1680.69999999925,892.10000000149,0,20,"middle",22,FALSE,TRUE,FALSE,100,2211.5,0,0,0,0,43,"left","middle",TRUE,FALSE,FALSE,"left","left",NA,1939
"5b9ca13a06114100010699b8",4,"Pool",4,"Lamp",1,"Pajamas",4,FALSE,FALSE,TRUE,"left","right",FALSE,TRUE,FALSE,FALSE,TRUE,"middle","[""left"",""right""]",NA,3243.90000003576,1306.60000002384,0,20,"middle",28,FALSE,TRUE,FALSE,91,983.600000023842,0,0,0,0,29,"left","middle",FALSE,FALSE,TRUE,"left","right",NA,2977.90000003576
"66954d8d88d42a3482f13df6",4,"Cup",3,"Pirate",3,"Ankle",1,FALSE,TRUE,FALSE,"left","right",FALSE,FALSE,TRUE,FALSE,TRUE,"left","[""middle"",""right""]",NA,1758,671,0,17,"middle",16,FALSE,TRUE,FALSE,99,1125,0,0,0,0,47,"left","middle",FALSE,TRUE,FALSE,"left","right",NA,4591
"6304db4577830d43f42d4d26",4,"Sandwich",2,"Fish",1,"Leg",2,FALSE,FALSE,TRUE,"left","right",FALSE,TRUE,FALSE,FALSE,TRUE,"middle","[""left"",""right""]",NA,1885,885.399999999441,0,18,"middle",23,FALSE,TRUE,FALSE,53,827.699999999255,0,0,0,0,38,"left","middle",FALSE,FALSE,TRUE,"left","right",NA,1939.79999999981
"67e7cdfb2d3c81d83ccef700",4,"Envelope",5,"Ear",1,"Eggs",4,TRUE,FALSE,FALSE,"right","right",FALSE,FALSE,TRUE,FALSE,TRUE,"middle","[""left"",""right""]",NA,56074,1130,0,15,"left",35,FALSE,TRUE,FALSE,97,1217,0,0,0,0,30,"right","left",TRUE,FALSE,FALSE,"right","right",NA,3406
